"subject_id","success","timeout","failed_images","failed_audio","failed_video","trial_type","trial_index","plugin_version","time_elapsed","trial_id","rt","stimulus","response","view_history","condition","itemB","causal_itemA","similarity_itemA","selected_choice","correct_response_attn","feedback","age","ethnicity","gender","race"
"subj_1",TRUE,FALSE,"[]","[]","[]","preload",0,"2.0.0",5,NA,NA,NA,NA,NA,NA,NA,NA,NA,NA,NA,NA,NA,NA,NA,NA
"subj_1",NA,NA,NA,NA,NA,"html-button-response",1,"2.0.0",3012,"consent",3005,"<p><b>Consent Form</b></p> <div style=""text-align:left;background-color:lightblue; padding:2vw; max-width:80vw;""><p><b>Purpose:</b> The purpose of this study is to understand how people think about the physical and social world.</p><p><b>Procedures:</b> In this study, you will watch videos, read sentences, or see pictures, and answer simple questions about them. This study should take approximately 4 minutes</p><p><b>Participation:</b> Participation in this study is voluntary. If you decide to join now, you can change your mind later. </p><p><b>Payment:</b> You will be paid $15.00/hour for participating in this study. Given the estimated duration of 4 minutes, your payment will amount to $1.</p><p><b>Risks and benefits:</b> There are no risks associated with participating in this study. There are no direct benefits associated with participating in this study. </p><p><b>Use of data by study researchers:</b> The research team led by Shari Liu at JHU will have access to your answers. </p><p><b>Publication of results:</b> The results of the research may be presented at scientific meetings or published in scientific journals. Your individual responses may be published. We will never publish your name, the date that you participated, and any other information that could be used to identify you. </p><p><b>Researcher contact information:</b> This study is run by Dr. Shari Liu at JHU. If you have any questions or concerns about this study, or in the very unlikely event of a research-related injury, please contact sliu199@jhu.edu. </p><p><b>Research rights information:</b> If you have questions about your rights as a research participant or feel that you have not been treated fairly, please call the Homewood Institutional Review Board at Johns Hopkins University at (410) 516-6580. If you have any questions or issues completing the survey, please email Shari Liu at sliu199@jhu.edu. </p> </div><p> Do you consent to participate? </p>","0",NA,NA,NA,NA,NA,NA,NA,NA,NA,NA,NA,NA
"subj_1",NA,NA,NA,NA,NA,"instructions",2,"2.0.0",8121,NA,5108,NA,NA,"[{""page_index"":0,""viewing_time"":5108}]",NA,NA,NA,NA,NA,NA,NA,NA,NA,NA,NA
"subj_1",NA,NA,NA,NA,NA,"html-button-response",3,"2.0.0",12714,NA,4592,"<p style=""font-size: 25px;"">Which of these actions would you do to make someone <strong>feel scared</strong>?</p>","0",NA,"intervention","feel scared","see something","become hungry","<p style=""font-size: 20px;"">I would make them <strong>see something</strong></p>",NA,NA,NA,NA,NA,NA
"subj_1",NA,NA,NA,NA,NA,"html-button-response",4,"2.0.0",16813,NA,4098,"<p style=""font-size: 25px;"">Which of these actions would you do to make someone <strong>sit down</strong>?</p>","0",NA,"intervention","sit down","experience pain","jump up and down","<p style=""font-size: 20px;"">I would make them <strong>experience pain</strong></p>",NA,NA,NA,NA,NA,NA
"subj_1",NA,NA,NA,NA,NA,"html-button-response",5,"2.0.0",19373,NA,2559,"<p style=""font-size: 25px;"">Which of these actions would you do to make someone <strong>get tired</strong>?</p>","0",NA,"intervention","get tired","jump up and down","feel scared","<p style=""font-size: 20px;"">I would make them <strong>jump up and down</strong></p>",NA,NA,NA,NA,NA,NA
"subj_1",NA,NA,NA,NA,NA,"html-button-response",6,"2.0.0",24213,NA,4839,"<p style=""font-size: 25px;"">Which of these actions would you do to make someone <strong>experience pain</strong>?</p>","1",NA,"intervention","experience pain","kick something","feel scared","<p style=""font-size: 20px;"">I would make them <strong>kick something</strong></p>",NA,NA,NA,NA,NA,NA
"subj_1",NA,NA,NA,NA,NA,"html-button-response",7,"2.0.0",27635,NA,3421,"<p style=""font-size: 25px;"">Which of these actions would you do to make someone <strong>kick something</strong>?</p>","0",NA,"intervention","kick something","think about something","jump up and down","<p style=""font-size: 20px;"">I would make them <strong>think about something</strong></p>",NA,NA,NA,NA,NA,NA
"subj_1",NA,NA,NA,NA,NA,"html-button-response",8,"2.0.0",30751,NA,3115,"<p style=""font-size: 25px;"">Which of these actions would you do to make someone <strong>choose what to do</strong>?</p>","0",NA,"intervention","choose what to do","feel scared","remember something","<p style=""font-size: 20px;"">I would make them <strong>feel scared</strong></p>",NA,NA,NA,NA,NA,NA
"subj_1",NA,NA,NA,NA,NA,"html-button-response",9,"2.0.0",75735,NA,44984,"<p style=""font-size: 25px;"">Which of these actions would you do to make someone <strong>reach for something</strong>?</p>","1",NA,"intervention","reach for something","become hungry","kick something","<p style=""font-size: 20px;"">I would make them <strong>become hungry</strong></p>",NA,NA,NA,NA,NA,NA
"subj_1",NA,NA,NA,NA,NA,"html-button-response",10,"2.0.0",78139,NA,2403,"<p style=""font-size: 25px;"">Which of these actions would you do to make someone <strong>get sick</strong>?</p>","0",NA,"intervention","get sick","see something","get tired","<p style=""font-size: 20px;"">I would make them <strong>get tired</strong></p>",NA,NA,NA,NA,NA,NA
"subj_1",NA,NA,NA,NA,NA,"html-button-response",11,"2.0.0",79779,NA,1639,"<p style=""font-size: 25px;"">Which of these actions would you do to make someone <strong>think about something</strong>?</p>","0",NA,"intervention","think about something","take a walk","remember something","<p style=""font-size: 20px;"">I would make them <strong>remember something</strong></p>",NA,NA,NA,NA,NA,NA
"subj_1",NA,NA,NA,NA,NA,"html-button-response",12,"2.0.0",81738,NA,1958,"<p style=""font-size: 25px;"">Which of these actions would you do to make someone <strong>hear something</strong>?</p>","0",NA,"intervention","hear something","take a walk","see something","<p style=""font-size: 20px;"">I would make them <strong>see something</strong></p>",NA,NA,NA,NA,NA,NA
"subj_1",NA,NA,NA,NA,NA,"html-button-response",13,"2.0.0",83636,NA,1897,"<p style=""font-size: 25px;"">Which of these actions would you do to make someone <strong>see something</strong>?</p>","1",NA,"intervention","see something","take a walk","hear something","<p style=""font-size: 20px;"">I would make them <strong>hear something</strong></p>",NA,NA,NA,NA,NA,NA
"subj_1",NA,NA,NA,NA,NA,"html-button-response",14,"2.0.0",85505,NA,1868,"<p style=""font-size: 25px;"">Which of these actions would you do to make someone <strong>remember something</strong>?</p>","0",NA,"intervention","remember something","take a walk","think about something","<p style=""font-size: 20px;"">I would make them <strong>think about something</strong></p>",NA,NA,NA,NA,NA,NA
"subj_1",NA,NA,NA,NA,NA,"html-button-response",15,"2.0.0",88411,NA,2905,"<p style=""font-size: 25px;"">Which of these actions would you do to make someone <strong>become hungry</strong>?</p>","0",NA,"intervention","become hungry","take a walk","experience pain","<p style=""font-size: 20px;"">I would make them <strong>take a walk</strong></p>",NA,NA,NA,NA,NA,NA
"subj_1",NA,NA,NA,NA,NA,"html-button-response",16,"2.0.0",91101,NA,2689,"<p style=""font-size: 25px;"">Which of these actions would you do to make someone <strong>take a walk</strong>?</p>","0",NA,"intervention","take a walk","think about something","jump up and down","<p style=""font-size: 20px;"">I would make them <strong>jump up and down</strong></p>",NA,NA,NA,NA,NA,NA
"subj_1",NA,NA,NA,NA,NA,"html-button-response",17,"2.0.0",94037,NA,2935,"<p style=""font-size: 25px;"">For this question, please select ""I would make them <strong>""choose what to do""</strong>""</p>","0",NA,"attention_check",NA,NA,NA,"I would make them choose what to do","choose what to do",NA,NA,NA,NA,NA
"subj_1",NA,NA,NA,NA,NA,"html-button-response",18,"2.0.0",97067,NA,3029,"<p style=""font-size: 25px;"">Which of these actions would you do to make someone <strong>jump up and down</strong>?</p>","0",NA,"intervention","jump up and down","think about something","sit down","<p style=""font-size: 20px;"">I would make them <strong>think about something</strong></p>",NA,NA,NA,NA,NA,NA
"subj_1",NA,NA,NA,NA,NA,"instructions",19,"2.0.0",137375,NA,40307,NA,NA,"[{""page_index"":0,""viewing_time"":40307}]",NA,NA,NA,NA,NA,NA,NA,NA,NA,NA,NA
"subj_1",NA,NA,NA,NA,NA,"survey-html-form",20,"2.0.0",150925,"demographics_survey",13547,NA,"{""feedback"":""I went with my gut. No."",""age"":""44"",""gender"":""Female"",""other_gender"":"""",""race"":""White"",""other_race"":"""",""ethnicity"":""Non-Hispanic""}",NA,NA,NA,NA,NA,NA,NA,"I went with my gut. No.",44,"Non-Hispanic","Female","White"
"subj_2",TRUE,FALSE,"[]","[]","[]","preload",0,"2.0.0",35,NA,NA,NA,NA,NA,NA,NA,NA,NA,NA,NA,NA,NA,NA,NA,NA
"subj_2",NA,NA,NA,NA,NA,"html-button-response",1,"2.0.0",8703,"consent",8658,"<p><b>Consent Form</b></p> <div style=""text-align:left;background-color:lightblue; padding:2vw; max-width:80vw;""><p><b>Purpose:</b> The purpose of this study is to understand how people think about the physical and social world.</p><p><b>Procedures:</b> In this study, you will watch videos, read sentences, or see pictures, and answer simple questions about them. This study should take approximately 4 minutes</p><p><b>Participation:</b> Participation in this study is voluntary. If you decide to join now, you can change your mind later. </p><p><b>Payment:</b> You will be paid $15.00/hour for participating in this study. Given the estimated duration of 4 minutes, your payment will amount to $1.</p><p><b>Risks and benefits:</b> There are no risks associated with participating in this study. There are no direct benefits associated with participating in this study. </p><p><b>Use of data by study researchers:</b> The research team led by Shari Liu at JHU will have access to your answers. </p><p><b>Publication of results:</b> The results of the research may be presented at scientific meetings or published in scientific journals. Your individual responses may be published. We will never publish your name, the date that you participated, and any other information that could be used to identify you. </p><p><b>Researcher contact information:</b> This study is run by Dr. Shari Liu at JHU. If you have any questions or concerns about this study, or in the very unlikely event of a research-related injury, please contact sliu199@jhu.edu. </p><p><b>Research rights information:</b> If you have questions about your rights as a research participant or feel that you have not been treated fairly, please call the Homewood Institutional Review Board at Johns Hopkins University at (410) 516-6580. If you have any questions or issues completing the survey, please email Shari Liu at sliu199@jhu.edu. </p> </div><p> Do you consent to participate? </p>","0",NA,NA,NA,NA,NA,NA,NA,NA,NA,NA,NA,NA
"subj_2",NA,NA,NA,NA,NA,"instructions",2,"2.0.0",28784,NA,20078,NA,NA,"[{""page_index"":0,""viewing_time"":20077}]",NA,NA,NA,NA,NA,NA,NA,NA,NA,NA,NA
"subj_2",NA,NA,NA,NA,NA,"html-button-response",3,"2.0.0",37473,NA,8684,"<p style=""font-size: 25px;"">Suppose someone told you about a creature that could <strong>take a walk</strong>. <br>Which of these two other abilities do you think the creature would also have?</p>","1",NA,"similarity","take a walk","think about something","jump up and down","<p style=""font-size: 20px;"">The ability to <strong>jump up and down</strong></p>",NA,NA,NA,NA,NA,NA
"subj_2",NA,NA,NA,NA,NA,"html-button-response",4,"2.0.0",42464,NA,4987,"<p style=""font-size: 25px;"">For this question, please select ""The ability to <strong>choose what to do</strong>""</p>","0",NA,"attention_check",NA,NA,NA,"The ability to choose what to do","choose what to do",NA,NA,NA,NA,NA
"subj_2",NA,NA,NA,NA,NA,"html-button-response",5,"2.0.0",50055,NA,7587,"<p style=""font-size: 25px;"">Suppose someone told you about a creature that could <strong>think about something</strong>. <br>Which of these two other abilities do you think the creature would also have?</p>","1",NA,"similarity","think about something","take a walk","remember something","<p style=""font-size: 20px;"">The ability to <strong>remember something</strong></p>",NA,NA,NA,NA,NA,NA
"subj_2",NA,NA,NA,NA,NA,"html-button-response",6,"2.0.0",57207,NA,7148,"<p style=""font-size: 25px;"">Suppose someone told you about a creature that could <strong>kick something</strong>. <br>Which of these two other abilities do you think the creature would also have?</p>","0",NA,"similarity","kick something","think about something","jump up and down","<p style=""font-size: 20px;"">The ability to <strong>jump up and down</strong></p>",NA,NA,NA,NA,NA,NA
"subj_2",NA,NA,NA,NA,NA,"html-button-response",7,"2.0.0",66095,NA,8884,"<p style=""font-size: 25px;"">Suppose someone told you about a creature that could <strong>choose what to do</strong>. <br>Which of these two other abilities do you think the creature would also have?</p>","1",NA,"similarity","choose what to do","feel scared","remember something","<p style=""font-size: 20px;"">The ability to <strong>remember something</strong></p>",NA,NA,NA,NA,NA,NA
"subj_2",NA,NA,NA,NA,NA,"html-button-response",8,"2.0.0",73992,NA,7892,"<p style=""font-size: 25px;"">Suppose someone told you about a creature that could <strong>become hungry</strong>. <br>Which of these two other abilities do you think the creature would also have?</p>","0",NA,"similarity","become hungry","take a walk","experience pain","<p style=""font-size: 20px;"">The ability to <strong>take a walk</strong></p>",NA,NA,NA,NA,NA,NA
"subj_2",NA,NA,NA,NA,NA,"html-button-response",9,"2.0.0",77768,NA,3772,"<p style=""font-size: 25px;"">Suppose someone told you about a creature that could <strong>reach for something</strong>. <br>Which of these two other abilities do you think the creature would also have?</p>","0",NA,"similarity","reach for something","become hungry","kick something","<p style=""font-size: 20px;"">The ability to <strong>become hungry</strong></p>",NA,NA,NA,NA,NA,NA
"subj_2",NA,NA,NA,NA,NA,"html-button-response",10,"2.0.0",83175,NA,5404,"<p style=""font-size: 25px;"">Suppose someone told you about a creature that could <strong>hear something</strong>. <br>Which of these two other abilities do you think the creature would also have?</p>","1",NA,"similarity","hear something","take a walk","see something","<p style=""font-size: 20px;"">The ability to <strong>see something</strong></p>",NA,NA,NA,NA,NA,NA
"subj_2",NA,NA,NA,NA,NA,"html-button-response",11,"2.0.0",88527,NA,5347,"<p style=""font-size: 25px;"">Suppose someone told you about a creature that could <strong>get sick</strong>. <br>Which of these two other abilities do you think the creature would also have?</p>","0",NA,"similarity","get sick","see something","get tired","<p style=""font-size: 20px;"">The ability to <strong>get tired</strong></p>",NA,NA,NA,NA,NA,NA
"subj_2",NA,NA,NA,NA,NA,"html-button-response",12,"2.0.0",92800,NA,4269,"<p style=""font-size: 25px;"">Suppose someone told you about a creature that could <strong>get tired</strong>. <br>Which of these two other abilities do you think the creature would also have?</p>","1",NA,"similarity","get tired","jump up and down","feel scared","<p style=""font-size: 20px;"">The ability to <strong>feel scared</strong></p>",NA,NA,NA,NA,NA,NA
"subj_2",NA,NA,NA,NA,NA,"html-button-response",13,"2.0.0",98487,NA,5684,"<p style=""font-size: 25px;"">Suppose someone told you about a creature that could <strong>jump up and down</strong>. <br>Which of these two other abilities do you think the creature would also have?</p>","1",NA,"similarity","jump up and down","think about something","sit down","<p style=""font-size: 20px;"">The ability to <strong>sit down</strong></p>",NA,NA,NA,NA,NA,NA
"subj_2",NA,NA,NA,NA,NA,"html-button-response",14,"2.0.0",100631,NA,2141,"<p style=""font-size: 25px;"">Suppose someone told you about a creature that could <strong>remember something</strong>. <br>Which of these two other abilities do you think the creature would also have?</p>","0",NA,"similarity","remember something","take a walk","think about something","<p style=""font-size: 20px;"">The ability to <strong>think about something</strong></p>",NA,NA,NA,NA,NA,NA
"subj_2",NA,NA,NA,NA,NA,"html-button-response",15,"2.0.0",105455,NA,4821,"<p style=""font-size: 25px;"">Suppose someone told you about a creature that could <strong>sit down</strong>. <br>Which of these two other abilities do you think the creature would also have?</p>","0",NA,"similarity","sit down","experience pain","jump up and down","<p style=""font-size: 20px;"">The ability to <strong>jump up and down</strong></p>",NA,NA,NA,NA,NA,NA
"subj_2",NA,NA,NA,NA,NA,"html-button-response",16,"2.0.0",109823,NA,4364,"<p style=""font-size: 25px;"">Suppose someone told you about a creature that could <strong>see something</strong>. <br>Which of these two other abilities do you think the creature would also have?</p>","1",NA,"similarity","see something","take a walk","hear something","<p style=""font-size: 20px;"">The ability to <strong>hear something</strong></p>",NA,NA,NA,NA,NA,NA
"subj_2",NA,NA,NA,NA,NA,"html-button-response",17,"2.0.0",113951,NA,4125,"<p style=""font-size: 25px;"">Suppose someone told you about a creature that could <strong>experience pain</strong>. <br>Which of these two other abilities do you think the creature would also have?</p>","0",NA,"similarity","experience pain","kick something","feel scared","<p style=""font-size: 20px;"">The ability to <strong>feel scared</strong></p>",NA,NA,NA,NA,NA,NA
"subj_2",NA,NA,NA,NA,NA,"html-button-response",18,"2.0.0",117719,NA,3764,"<p style=""font-size: 25px;"">Suppose someone told you about a creature that could <strong>feel scared</strong>. <br>Which of these two other abilities do you think the creature would also have?</p>","1",NA,"similarity","feel scared","see something","become hungry","<p style=""font-size: 20px;"">The ability to <strong>become hungry</strong></p>",NA,NA,NA,NA,NA,NA
"subj_2",NA,NA,NA,NA,NA,"instructions",19,"2.0.0",131159,NA,13438,NA,NA,"[{""page_index"":0,""viewing_time"":13438}]",NA,NA,NA,NA,NA,NA,NA,NA,NA,NA,NA
"subj_2",NA,NA,NA,NA,NA,"survey-html-form",20,"2.0.0",179190,"demographics_survey",48023,NA,"{""feedback"":""I chose similar  choices."",""age"":""61"",""gender"":""Female"",""other_gender"":"""",""race"":""White"",""other_race"":"""",""ethnicity"":""Non-Hispanic""}",NA,NA,NA,NA,NA,NA,NA,"I chose similar  choices.",61,"Non-Hispanic","Female","White"
"subj_3",TRUE,FALSE,"[]","[]","[]","preload",0,"2.0.0",3,NA,NA,NA,NA,NA,NA,NA,NA,NA,NA,NA,NA,NA,NA,NA,NA
"subj_3",NA,NA,NA,NA,NA,"html-button-response",1,"2.0.0",24496,"consent",24491,"<p><b>Consent Form</b></p> <div style=""text-align:left;background-color:lightblue; padding:2vw; max-width:80vw;""><p><b>Purpose:</b> The purpose of this study is to understand how people think about the physical and social world.</p><p><b>Procedures:</b> In this study, you will watch videos, read sentences, or see pictures, and answer simple questions about them. This study should take approximately 4 minutes</p><p><b>Participation:</b> Participation in this study is voluntary. If you decide to join now, you can change your mind later. </p><p><b>Payment:</b> You will be paid $15.00/hour for participating in this study. Given the estimated duration of 4 minutes, your payment will amount to $1.</p><p><b>Risks and benefits:</b> There are no risks associated with participating in this study. There are no direct benefits associated with participating in this study. </p><p><b>Use of data by study researchers:</b> The research team led by Shari Liu at JHU will have access to your answers. </p><p><b>Publication of results:</b> The results of the research may be presented at scientific meetings or published in scientific journals. Your individual responses may be published. We will never publish your name, the date that you participated, and any other information that could be used to identify you. </p><p><b>Researcher contact information:</b> This study is run by Dr. Shari Liu at JHU. If you have any questions or concerns about this study, or in the very unlikely event of a research-related injury, please contact sliu199@jhu.edu. </p><p><b>Research rights information:</b> If you have questions about your rights as a research participant or feel that you have not been treated fairly, please call the Homewood Institutional Review Board at Johns Hopkins University at (410) 516-6580. If you have any questions or issues completing the survey, please email Shari Liu at sliu199@jhu.edu. </p> </div><p> Do you consent to participate? </p>","0",NA,NA,NA,NA,NA,NA,NA,NA,NA,NA,NA,NA
"subj_3",NA,NA,NA,NA,NA,"instructions",2,"2.0.0",44619,NA,20122,NA,NA,"[{""page_index"":0,""viewing_time"":20122}]",NA,NA,NA,NA,NA,NA,NA,NA,NA,NA,NA
"subj_3",NA,NA,NA,NA,NA,"html-button-response",3,"2.0.0",56495,NA,11874,"<p style=""font-size: 25px;"">Suppose someone told you about a creature that could <strong>think about something</strong>. <br>Which of these two other abilities do you think the creature would also have?</p>","1",NA,"similarity","think about something","take a walk","remember something","<p style=""font-size: 20px;"">The ability to <strong>remember something</strong></p>",NA,NA,NA,NA,NA,NA
"subj_3",NA,NA,NA,NA,NA,"html-button-response",4,"2.0.0",65675,NA,9179,"<p style=""font-size: 25px;"">Suppose someone told you about a creature that could <strong>experience pain</strong>. <br>Which of these two other abilities do you think the creature would also have?</p>","1",NA,"similarity","experience pain","kick something","feel scared","<p style=""font-size: 20px;"">The ability to <strong>feel scared</strong></p>",NA,NA,NA,NA,NA,NA
"subj_3",NA,NA,NA,NA,NA,"html-button-response",5,"2.0.0",72461,NA,6784,"<p style=""font-size: 25px;"">Suppose someone told you about a creature that could <strong>sit down</strong>. <br>Which of these two other abilities do you think the creature would also have?</p>","0",NA,"similarity","sit down","experience pain","jump up and down","<p style=""font-size: 20px;"">The ability to <strong>jump up and down</strong></p>",NA,NA,NA,NA,NA,NA
"subj_3",NA,NA,NA,NA,NA,"html-button-response",6,"2.0.0",77765,NA,5303,"<p style=""font-size: 25px;"">Suppose someone told you about a creature that could <strong>choose what to do</strong>. <br>Which of these two other abilities do you think the creature would also have?</p>","0",NA,"similarity","choose what to do","feel scared","remember something","<p style=""font-size: 20px;"">The ability to <strong>remember something</strong></p>",NA,NA,NA,NA,NA,NA
"subj_3",NA,NA,NA,NA,NA,"html-button-response",7,"2.0.0",82176,NA,4410,"<p style=""font-size: 25px;"">Suppose someone told you about a creature that could <strong>remember something</strong>. <br>Which of these two other abilities do you think the creature would also have?</p>","1",NA,"similarity","remember something","take a walk","think about something","<p style=""font-size: 20px;"">The ability to <strong>think about something</strong></p>",NA,NA,NA,NA,NA,NA
"subj_3",NA,NA,NA,NA,NA,"html-button-response",8,"2.0.0",88653,NA,6476,"<p style=""font-size: 25px;"">Suppose someone told you about a creature that could <strong>reach for something</strong>. <br>Which of these two other abilities do you think the creature would also have?</p>","1",NA,"similarity","reach for something","become hungry","kick something","<p style=""font-size: 20px;"">The ability to <strong>become hungry</strong></p>",NA,NA,NA,NA,NA,NA
"subj_3",NA,NA,NA,NA,NA,"html-button-response",9,"2.0.0",95163,NA,6509,"<p style=""font-size: 25px;"">Suppose someone told you about a creature that could <strong>see something</strong>. <br>Which of these two other abilities do you think the creature would also have?</p>","0",NA,"similarity","see something","take a walk","hear something","<p style=""font-size: 20px;"">The ability to <strong>hear something</strong></p>",NA,NA,NA,NA,NA,NA
"subj_3",NA,NA,NA,NA,NA,"html-button-response",10,"2.0.0",99564,NA,4400,"<p style=""font-size: 25px;"">Suppose someone told you about a creature that could <strong>kick something</strong>. <br>Which of these two other abilities do you think the creature would also have?</p>","1",NA,"similarity","kick something","think about something","jump up and down","<p style=""font-size: 20px;"">The ability to <strong>think about something</strong></p>",NA,NA,NA,NA,NA,NA
"subj_3",NA,NA,NA,NA,NA,"html-button-response",11,"2.0.0",104309,NA,4744,"<p style=""font-size: 25px;"">Suppose someone told you about a creature that could <strong>get tired</strong>. <br>Which of these two other abilities do you think the creature would also have?</p>","0",NA,"similarity","get tired","jump up and down","feel scared","<p style=""font-size: 20px;"">The ability to <strong>feel scared</strong></p>",NA,NA,NA,NA,NA,NA
"subj_3",NA,NA,NA,NA,NA,"html-button-response",12,"2.0.0",109409,NA,5099,"<p style=""font-size: 25px;"">Suppose someone told you about a creature that could <strong>jump up and down</strong>. <br>Which of these two other abilities do you think the creature would also have?</p>","0",NA,"similarity","jump up and down","think about something","sit down","<p style=""font-size: 20px;"">The ability to <strong>sit down</strong></p>",NA,NA,NA,NA,NA,NA
"subj_3",NA,NA,NA,NA,NA,"html-button-response",13,"2.0.0",112857,NA,3447,"<p style=""font-size: 25px;"">Suppose someone told you about a creature that could <strong>hear something</strong>. <br>Which of these two other abilities do you think the creature would also have?</p>","1",NA,"similarity","hear something","take a walk","see something","<p style=""font-size: 20px;"">The ability to <strong>see something</strong></p>",NA,NA,NA,NA,NA,NA
"subj_3",NA,NA,NA,NA,NA,"html-button-response",14,"2.0.0",117757,NA,4899,"<p style=""font-size: 25px;"">Suppose someone told you about a creature that could <strong>get sick</strong>. <br>Which of these two other abilities do you think the creature would also have?</p>","0",NA,"similarity","get sick","see something","get tired","<p style=""font-size: 20px;"">The ability to <strong>get tired</strong></p>",NA,NA,NA,NA,NA,NA
"subj_3",NA,NA,NA,NA,NA,"html-button-response",15,"2.0.0",125734,NA,7976,"<p style=""font-size: 25px;"">For this question, please select ""The ability to <strong>choose what to do</strong>""</p>","0",NA,"attention_check",NA,NA,NA,"The ability to choose what to do","choose what to do",NA,NA,NA,NA,NA
"subj_3",NA,NA,NA,NA,NA,"html-button-response",16,"2.0.0",134011,NA,8275,"<p style=""font-size: 25px;"">Suppose someone told you about a creature that could <strong>become hungry</strong>. <br>Which of these two other abilities do you think the creature would also have?</p>","1",NA,"similarity","become hungry","take a walk","experience pain","<p style=""font-size: 20px;"">The ability to <strong>take a walk</strong></p>",NA,NA,NA,NA,NA,NA
"subj_3",NA,NA,NA,NA,NA,"html-button-response",17,"2.0.0",137712,NA,3701,"<p style=""font-size: 25px;"">Suppose someone told you about a creature that could <strong>take a walk</strong>. <br>Which of these two other abilities do you think the creature would also have?</p>","0",NA,"similarity","take a walk","think about something","jump up and down","<p style=""font-size: 20px;"">The ability to <strong>think about something</strong></p>",NA,NA,NA,NA,NA,NA
"subj_3",NA,NA,NA,NA,NA,"html-button-response",18,"2.0.0",140846,NA,3133,"<p style=""font-size: 25px;"">Suppose someone told you about a creature that could <strong>feel scared</strong>. <br>Which of these two other abilities do you think the creature would also have?</p>","0",NA,"similarity","feel scared","see something","become hungry","<p style=""font-size: 20px;"">The ability to <strong>see something</strong></p>",NA,NA,NA,NA,NA,NA
"subj_3",NA,NA,NA,NA,NA,"instructions",19,"2.0.0",151144,NA,10297,NA,NA,"[{""page_index"":0,""viewing_time"":10297}]",NA,NA,NA,NA,NA,NA,NA,NA,NA,NA,NA
"subj_3",NA,NA,NA,NA,NA,"survey-html-form",20,"2.0.0",177827,"demographics_survey",26680,NA,"{""feedback"":""Just what I thought paired best together"",""age"":""40"",""gender"":""Male"",""other_gender"":"""",""race"":""White"",""other_race"":"""",""ethnicity"":""Non-Hispanic""}",NA,NA,NA,NA,NA,NA,NA,"Just what I thought paired best together",40,"Non-Hispanic","Male","White"
"subj_4",TRUE,FALSE,"[]","[]","[]","preload",0,"2.0.0",10,NA,NA,NA,NA,NA,NA,NA,NA,NA,NA,NA,NA,NA,NA,NA,NA
"subj_4",NA,NA,NA,NA,NA,"html-button-response",1,"2.0.0",3743,"consent",3730,"<p><b>Consent Form</b></p> <div style=""text-align:left;background-color:lightblue; padding:2vw; max-width:80vw;""><p><b>Purpose:</b> The purpose of this study is to understand how people think about the physical and social world.</p><p><b>Procedures:</b> In this study, you will watch videos, read sentences, or see pictures, and answer simple questions about them. This study should take approximately 4 minutes</p><p><b>Participation:</b> Participation in this study is voluntary. If you decide to join now, you can change your mind later. </p><p><b>Payment:</b> You will be paid $15.00/hour for participating in this study. Given the estimated duration of 4 minutes, your payment will amount to $1.</p><p><b>Risks and benefits:</b> There are no risks associated with participating in this study. There are no direct benefits associated with participating in this study. </p><p><b>Use of data by study researchers:</b> The research team led by Shari Liu at JHU will have access to your answers. </p><p><b>Publication of results:</b> The results of the research may be presented at scientific meetings or published in scientific journals. Your individual responses may be published. We will never publish your name, the date that you participated, and any other information that could be used to identify you. </p><p><b>Researcher contact information:</b> This study is run by Dr. Shari Liu at JHU. If you have any questions or concerns about this study, or in the very unlikely event of a research-related injury, please contact sliu199@jhu.edu. </p><p><b>Research rights information:</b> If you have questions about your rights as a research participant or feel that you have not been treated fairly, please call the Homewood Institutional Review Board at Johns Hopkins University at (410) 516-6580. If you have any questions or issues completing the survey, please email Shari Liu at sliu199@jhu.edu. </p> </div><p> Do you consent to participate? </p>","0",NA,NA,NA,NA,NA,NA,NA,NA,NA,NA,NA,NA
"subj_4",NA,NA,NA,NA,NA,"instructions",2,"2.0.0",10985,NA,7241,NA,NA,"[{""page_index"":0,""viewing_time"":7241}]",NA,NA,NA,NA,NA,NA,NA,NA,NA,NA,NA
"subj_4",NA,NA,NA,NA,NA,"html-button-response",3,"2.0.0",22020,NA,11033,"<p style=""font-size: 25px;"">Which of these actions would you do to make someone <strong>become hungry</strong>?</p>","1",NA,"intervention","become hungry","take a walk","experience pain","<p style=""font-size: 20px;"">I would make them <strong>take a walk</strong></p>",NA,NA,NA,NA,NA,NA
"subj_4",NA,NA,NA,NA,NA,"html-button-response",4,"2.0.0",27890,NA,5868,"<p style=""font-size: 25px;"">Which of these actions would you do to make someone <strong>feel scared</strong>?</p>","1",NA,"intervention","feel scared","see something","become hungry","<p style=""font-size: 20px;"">I would make them <strong>see something</strong></p>",NA,NA,NA,NA,NA,NA
"subj_4",NA,NA,NA,NA,NA,"html-button-response",5,"2.0.0",34159,NA,6267,"<p style=""font-size: 25px;"">Which of these actions would you do to make someone <strong>hear something</strong>?</p>","1",NA,"intervention","hear something","take a walk","see something","<p style=""font-size: 20px;"">I would make them <strong>take a walk</strong></p>",NA,NA,NA,NA,NA,NA
"subj_4",NA,NA,NA,NA,NA,"html-button-response",6,"2.0.0",38808,NA,4648,"<p style=""font-size: 25px;"">Which of these actions would you do to make someone <strong>jump up and down</strong>?</p>","1",NA,"intervention","jump up and down","think about something","sit down","<p style=""font-size: 20px;"">I would make them <strong>think about something</strong></p>",NA,NA,NA,NA,NA,NA
"subj_4",NA,NA,NA,NA,NA,"html-button-response",7,"2.0.0",43489,NA,4680,"<p style=""font-size: 25px;"">Which of these actions would you do to make someone <strong>kick something</strong>?</p>","1",NA,"intervention","kick something","think about something","jump up and down","<p style=""font-size: 20px;"">I would make them <strong>think about something</strong></p>",NA,NA,NA,NA,NA,NA
"subj_4",NA,NA,NA,NA,NA,"html-button-response",8,"2.0.0",47937,NA,4446,"<p style=""font-size: 25px;"">Which of these actions would you do to make someone <strong>choose what to do</strong>?</p>","0",NA,"intervention","choose what to do","feel scared","remember something","<p style=""font-size: 20px;"">I would make them <strong>remember something</strong></p>",NA,NA,NA,NA,NA,NA
"subj_4",NA,NA,NA,NA,NA,"html-button-response",9,"2.0.0",52969,NA,5031,"<p style=""font-size: 25px;"">Which of these actions would you do to make someone <strong>take a walk</strong>?</p>","0",NA,"intervention","take a walk","think about something","jump up and down","<p style=""font-size: 20px;"">I would make them <strong>think about something</strong></p>",NA,NA,NA,NA,NA,NA
"subj_4",NA,NA,NA,NA,NA,"html-button-response",10,"2.0.0",58083,NA,5112,"<p style=""font-size: 25px;"">For this question, please select ""I would make them <strong>""choose what to do""</strong>""</p>","0",NA,"attention_check",NA,NA,NA,"I would make them choose what to do","choose what to do",NA,NA,NA,NA,NA
"subj_4",NA,NA,NA,NA,NA,"html-button-response",11,"2.0.0",68521,NA,10436,"<p style=""font-size: 25px;"">Which of these actions would you do to make someone <strong>experience pain</strong>?</p>","0",NA,"intervention","experience pain","kick something","feel scared","<p style=""font-size: 20px;"">I would make them <strong>kick something</strong></p>",NA,NA,NA,NA,NA,NA
"subj_4",NA,NA,NA,NA,NA,"html-button-response",12,"2.0.0",72695,NA,4173,"<p style=""font-size: 25px;"">Which of these actions would you do to make someone <strong>get sick</strong>?</p>","1",NA,"intervention","get sick","see something","get tired","<p style=""font-size: 20px;"">I would make them <strong>see something</strong></p>",NA,NA,NA,NA,NA,NA
"subj_4",NA,NA,NA,NA,NA,"html-button-response",13,"2.0.0",75550,NA,2853,"<p style=""font-size: 25px;"">Which of these actions would you do to make someone <strong>remember something</strong>?</p>","1",NA,"intervention","remember something","take a walk","think about something","<p style=""font-size: 20px;"">I would make them <strong>think about something</strong></p>",NA,NA,NA,NA,NA,NA
"subj_4",NA,NA,NA,NA,NA,"html-button-response",14,"2.0.0",78177,NA,2626,"<p style=""font-size: 25px;"">Which of these actions would you do to make someone <strong>get tired</strong>?</p>","0",NA,"intervention","get tired","jump up and down","feel scared","<p style=""font-size: 20px;"">I would make them <strong>jump up and down</strong></p>",NA,NA,NA,NA,NA,NA
"subj_4",NA,NA,NA,NA,NA,"html-button-response",15,"2.0.0",81290,NA,3111,"<p style=""font-size: 25px;"">Which of these actions would you do to make someone <strong>think about something</strong>?</p>","1",NA,"intervention","think about something","take a walk","remember something","<p style=""font-size: 20px;"">I would make them <strong>remember something</strong></p>",NA,NA,NA,NA,NA,NA
"subj_4",NA,NA,NA,NA,NA,"html-button-response",16,"2.0.0",85945,NA,4654,"<p style=""font-size: 25px;"">Which of these actions would you do to make someone <strong>sit down</strong>?</p>","1",NA,"intervention","sit down","experience pain","jump up and down","<p style=""font-size: 20px;"">I would make them <strong>experience pain</strong></p>",NA,NA,NA,NA,NA,NA
"subj_4",NA,NA,NA,NA,NA,"html-button-response",17,"2.0.0",90121,NA,4175,"<p style=""font-size: 25px;"">Which of these actions would you do to make someone <strong>reach for something</strong>?</p>","1",NA,"intervention","reach for something","become hungry","kick something","<p style=""font-size: 20px;"">I would make them <strong>become hungry</strong></p>",NA,NA,NA,NA,NA,NA
"subj_4",NA,NA,NA,NA,NA,"html-button-response",18,"2.0.0",93980,NA,3858,"<p style=""font-size: 25px;"">Which of these actions would you do to make someone <strong>see something</strong>?</p>","1",NA,"intervention","see something","take a walk","hear something","<p style=""font-size: 20px;"">I would make them <strong>take a walk</strong></p>",NA,NA,NA,NA,NA,NA
"subj_4",NA,NA,NA,NA,NA,"instructions",19,"2.0.0",103072,NA,9090,NA,NA,"[{""page_index"":0,""viewing_time"":9090}]",NA,NA,NA,NA,NA,NA,NA,NA,NA,NA,NA
"subj_4",NA,NA,NA,NA,NA,"survey-html-form",20,"2.0.0",146118,"demographics_survey",43043,NA,"{""feedback"":""I just thought about how I would make them do something. I had no issues. "",""age"":""43"",""gender"":""Female"",""other_gender"":"""",""race"":""Black/African American"",""other_race"":"""",""ethnicity"":""Non-Hispanic""}",NA,NA,NA,NA,NA,NA,NA,"I just thought about how I would make them do something. I had no issues.",43,"Non-Hispanic","Female","Black/African American"
"subj_5",TRUE,FALSE,"[]","[]","[]","preload",0,"2.0.0",4,NA,NA,NA,NA,NA,NA,NA,NA,NA,NA,NA,NA,NA,NA,NA,NA
"subj_5",NA,NA,NA,NA,NA,"html-button-response",1,"2.0.0",12063,"consent",12058,"<p><b>Consent Form</b></p> <div style=""text-align:left;background-color:lightblue; padding:2vw; max-width:80vw;""><p><b>Purpose:</b> The purpose of this study is to understand how people think about the physical and social world.</p><p><b>Procedures:</b> In this study, you will watch videos, read sentences, or see pictures, and answer simple questions about them. This study should take approximately 4 minutes</p><p><b>Participation:</b> Participation in this study is voluntary. If you decide to join now, you can change your mind later. </p><p><b>Payment:</b> You will be paid $15.00/hour for participating in this study. Given the estimated duration of 4 minutes, your payment will amount to $1.</p><p><b>Risks and benefits:</b> There are no risks associated with participating in this study. There are no direct benefits associated with participating in this study. </p><p><b>Use of data by study researchers:</b> The research team led by Shari Liu at JHU will have access to your answers. </p><p><b>Publication of results:</b> The results of the research may be presented at scientific meetings or published in scientific journals. Your individual responses may be published. We will never publish your name, the date that you participated, and any other information that could be used to identify you. </p><p><b>Researcher contact information:</b> This study is run by Dr. Shari Liu at JHU. If you have any questions or concerns about this study, or in the very unlikely event of a research-related injury, please contact sliu199@jhu.edu. </p><p><b>Research rights information:</b> If you have questions about your rights as a research participant or feel that you have not been treated fairly, please call the Homewood Institutional Review Board at Johns Hopkins University at (410) 516-6580. If you have any questions or issues completing the survey, please email Shari Liu at sliu199@jhu.edu. </p> </div><p> Do you consent to participate? </p>","0",NA,NA,NA,NA,NA,NA,NA,NA,NA,NA,NA,NA
"subj_5",NA,NA,NA,NA,NA,"instructions",2,"2.0.0",18126,NA,6063,NA,NA,"[{""page_index"":0,""viewing_time"":6063}]",NA,NA,NA,NA,NA,NA,NA,NA,NA,NA,NA
"subj_5",NA,NA,NA,NA,NA,"html-button-response",3,"2.0.0",21287,NA,3160,"<p style=""font-size: 25px;"">For this question, please select ""The ability to <strong>choose what to do</strong>""</p>","0",NA,"attention_check",NA,NA,NA,"The ability to choose what to do","choose what to do",NA,NA,NA,NA,NA
"subj_5",NA,NA,NA,NA,NA,"html-button-response",4,"2.0.0",25694,NA,4407,"<p style=""font-size: 25px;"">Suppose someone told you about a creature that could <strong>jump up and down</strong>. <br>Which of these two other abilities do you think the creature would also have?</p>","1",NA,"similarity","jump up and down","think about something","sit down","<p style=""font-size: 20px;"">The ability to <strong>sit down</strong></p>",NA,NA,NA,NA,NA,NA
"subj_5",NA,NA,NA,NA,NA,"html-button-response",5,"2.0.0",29046,NA,3351,"<p style=""font-size: 25px;"">Suppose someone told you about a creature that could <strong>experience pain</strong>. <br>Which of these two other abilities do you think the creature would also have?</p>","1",NA,"similarity","experience pain","kick something","feel scared","<p style=""font-size: 20px;"">The ability to <strong>feel scared</strong></p>",NA,NA,NA,NA,NA,NA
"subj_5",NA,NA,NA,NA,NA,"html-button-response",6,"2.0.0",31935,NA,2888,"<p style=""font-size: 25px;"">Suppose someone told you about a creature that could <strong>think about something</strong>. <br>Which of these two other abilities do you think the creature would also have?</p>","0",NA,"similarity","think about something","take a walk","remember something","<p style=""font-size: 20px;"">The ability to <strong>remember something</strong></p>",NA,NA,NA,NA,NA,NA
"subj_5",NA,NA,NA,NA,NA,"html-button-response",7,"2.0.0",34910,NA,2975,"<p style=""font-size: 25px;"">Suppose someone told you about a creature that could <strong>see something</strong>. <br>Which of these two other abilities do you think the creature would also have?</p>","0",NA,"similarity","see something","take a walk","hear something","<p style=""font-size: 20px;"">The ability to <strong>take a walk</strong></p>",NA,NA,NA,NA,NA,NA
"subj_5",NA,NA,NA,NA,NA,"html-button-response",8,"2.0.0",37055,NA,2144,"<p style=""font-size: 25px;"">Suppose someone told you about a creature that could <strong>hear something</strong>. <br>Which of these two other abilities do you think the creature would also have?</p>","1",NA,"similarity","hear something","take a walk","see something","<p style=""font-size: 20px;"">The ability to <strong>see something</strong></p>",NA,NA,NA,NA,NA,NA
"subj_5",NA,NA,NA,NA,NA,"html-button-response",9,"2.0.0",38902,NA,1847,"<p style=""font-size: 25px;"">Suppose someone told you about a creature that could <strong>get tired</strong>. <br>Which of these two other abilities do you think the creature would also have?</p>","0",NA,"similarity","get tired","jump up and down","feel scared","<p style=""font-size: 20px;"">The ability to <strong>jump up and down</strong></p>",NA,NA,NA,NA,NA,NA
"subj_5",NA,NA,NA,NA,NA,"html-button-response",10,"2.0.0",41262,NA,2359,"<p style=""font-size: 25px;"">Suppose someone told you about a creature that could <strong>sit down</strong>. <br>Which of these two other abilities do you think the creature would also have?</p>","0",NA,"similarity","sit down","experience pain","jump up and down","<p style=""font-size: 20px;"">The ability to <strong>jump up and down</strong></p>",NA,NA,NA,NA,NA,NA
"subj_5",NA,NA,NA,NA,NA,"html-button-response",11,"2.0.0",43774,NA,2511,"<p style=""font-size: 25px;"">Suppose someone told you about a creature that could <strong>remember something</strong>. <br>Which of these two other abilities do you think the creature would also have?</p>","1",NA,"similarity","remember something","take a walk","think about something","<p style=""font-size: 20px;"">The ability to <strong>think about something</strong></p>",NA,NA,NA,NA,NA,NA
"subj_5",NA,NA,NA,NA,NA,"html-button-response",12,"2.0.0",46158,NA,2383,"<p style=""font-size: 25px;"">Suppose someone told you about a creature that could <strong>reach for something</strong>. <br>Which of these two other abilities do you think the creature would also have?</p>","0",NA,"similarity","reach for something","become hungry","kick something","<p style=""font-size: 20px;"">The ability to <strong>become hungry</strong></p>",NA,NA,NA,NA,NA,NA
"subj_5",NA,NA,NA,NA,NA,"html-button-response",13,"2.0.0",47950,NA,1791,"<p style=""font-size: 25px;"">Suppose someone told you about a creature that could <strong>get sick</strong>. <br>Which of these two other abilities do you think the creature would also have?</p>","0",NA,"similarity","get sick","see something","get tired","<p style=""font-size: 20px;"">The ability to <strong>get tired</strong></p>",NA,NA,NA,NA,NA,NA
"subj_5",NA,NA,NA,NA,NA,"html-button-response",14,"2.0.0",50334,NA,2384,"<p style=""font-size: 25px;"">Suppose someone told you about a creature that could <strong>kick something</strong>. <br>Which of these two other abilities do you think the creature would also have?</p>","0",NA,"similarity","kick something","think about something","jump up and down","<p style=""font-size: 20px;"">The ability to <strong>jump up and down</strong></p>",NA,NA,NA,NA,NA,NA
"subj_5",NA,NA,NA,NA,NA,"html-button-response",15,"2.0.0",52638,NA,2303,"<p style=""font-size: 25px;"">Suppose someone told you about a creature that could <strong>choose what to do</strong>. <br>Which of these two other abilities do you think the creature would also have?</p>","1",NA,"similarity","choose what to do","feel scared","remember something","<p style=""font-size: 20px;"">The ability to <strong>remember something</strong></p>",NA,NA,NA,NA,NA,NA
"subj_5",NA,NA,NA,NA,NA,"html-button-response",16,"2.0.0",65288,NA,12648,"<p style=""font-size: 25px;"">Suppose someone told you about a creature that could <strong>become hungry</strong>. <br>Which of these two other abilities do you think the creature would also have?</p>","1",NA,"similarity","become hungry","take a walk","experience pain","<p style=""font-size: 20px;"">The ability to <strong>take a walk</strong></p>",NA,NA,NA,NA,NA,NA
"subj_5",NA,NA,NA,NA,NA,"html-button-response",17,"2.0.0",67695,NA,2407,"<p style=""font-size: 25px;"">Suppose someone told you about a creature that could <strong>take a walk</strong>. <br>Which of these two other abilities do you think the creature would also have?</p>","0",NA,"similarity","take a walk","think about something","jump up and down","<p style=""font-size: 20px;"">The ability to <strong>think about something</strong></p>",NA,NA,NA,NA,NA,NA
"subj_5",NA,NA,NA,NA,NA,"html-button-response",18,"2.0.0",70335,NA,2639,"<p style=""font-size: 25px;"">Suppose someone told you about a creature that could <strong>feel scared</strong>. <br>Which of these two other abilities do you think the creature would also have?</p>","0",NA,"similarity","feel scared","see something","become hungry","<p style=""font-size: 20px;"">The ability to <strong>see something</strong></p>",NA,NA,NA,NA,NA,NA
"subj_5",NA,NA,NA,NA,NA,"instructions",19,"2.0.0",71807,NA,1472,NA,NA,"[{""page_index"":0,""viewing_time"":1472}]",NA,NA,NA,NA,NA,NA,NA,NA,NA,NA,NA
"subj_5",NA,NA,NA,NA,NA,"survey-html-form",20,"2.0.0",79472,"demographics_survey",7663,NA,"{""feedback"":""No comments"",""age"":""44"",""gender"":""Male"",""other_gender"":"""",""race"":""White"",""other_race"":"""",""ethnicity"":""Non-Hispanic""}",NA,NA,NA,NA,NA,NA,NA,"No comments",44,"Non-Hispanic","Male","White"
"subj_6",TRUE,FALSE,"[]","[]","[]","preload",0,"2.0.0",5,NA,NA,NA,NA,NA,NA,NA,NA,NA,NA,NA,NA,NA,NA,NA,NA
"subj_6",NA,NA,NA,NA,NA,"html-button-response",1,"2.0.0",48955,"consent",48947,"<p><b>Consent Form</b></p> <div style=""text-align:left;background-color:lightblue; padding:2vw; max-width:80vw;""><p><b>Purpose:</b> The purpose of this study is to understand how people think about the physical and social world.</p><p><b>Procedures:</b> In this study, you will watch videos, read sentences, or see pictures, and answer simple questions about them. This study should take approximately 4 minutes</p><p><b>Participation:</b> Participation in this study is voluntary. If you decide to join now, you can change your mind later. </p><p><b>Payment:</b> You will be paid $15.00/hour for participating in this study. Given the estimated duration of 4 minutes, your payment will amount to $1.</p><p><b>Risks and benefits:</b> There are no risks associated with participating in this study. There are no direct benefits associated with participating in this study. </p><p><b>Use of data by study researchers:</b> The research team led by Shari Liu at JHU will have access to your answers. </p><p><b>Publication of results:</b> The results of the research may be presented at scientific meetings or published in scientific journals. Your individual responses may be published. We will never publish your name, the date that you participated, and any other information that could be used to identify you. </p><p><b>Researcher contact information:</b> This study is run by Dr. Shari Liu at JHU. If you have any questions or concerns about this study, or in the very unlikely event of a research-related injury, please contact sliu199@jhu.edu. </p><p><b>Research rights information:</b> If you have questions about your rights as a research participant or feel that you have not been treated fairly, please call the Homewood Institutional Review Board at Johns Hopkins University at (410) 516-6580. If you have any questions or issues completing the survey, please email Shari Liu at sliu199@jhu.edu. </p> </div><p> Do you consent to participate? </p>","0",NA,NA,NA,NA,NA,NA,NA,NA,NA,NA,NA,NA
"subj_6",NA,NA,NA,NA,NA,"instructions",2,"2.0.0",76443,NA,27487,NA,NA,"[{""page_index"":0,""viewing_time"":27487}]",NA,NA,NA,NA,NA,NA,NA,NA,NA,NA,NA
"subj_6",NA,NA,NA,NA,NA,"html-button-response",3,"2.0.0",88351,NA,11905,"<p style=""font-size: 25px;"">Which of these actions would you do to make someone <strong>think about something</strong>?</p>","1",NA,"intervention","think about something","take a walk","remember something","<p style=""font-size: 20px;"">I would make them <strong>remember something</strong></p>",NA,NA,NA,NA,NA,NA
"subj_6",NA,NA,NA,NA,NA,"html-button-response",4,"2.0.0",94594,NA,6242,"<p style=""font-size: 25px;"">Which of these actions would you do to make someone <strong>remember something</strong>?</p>","1",NA,"intervention","remember something","take a walk","think about something","<p style=""font-size: 20px;"">I would make them <strong>think about something</strong></p>",NA,NA,NA,NA,NA,NA
"subj_6",NA,NA,NA,NA,NA,"html-button-response",5,"2.0.0",97318,NA,2723,"<p style=""font-size: 25px;"">Which of these actions would you do to make someone <strong>become hungry</strong>?</p>","1",NA,"intervention","become hungry","take a walk","experience pain","<p style=""font-size: 20px;"">I would make them <strong>take a walk</strong></p>",NA,NA,NA,NA,NA,NA
"subj_6",NA,NA,NA,NA,NA,"html-button-response",6,"2.0.0",103322,NA,6003,"<p style=""font-size: 25px;"">Which of these actions would you do to make someone <strong>kick something</strong>?</p>","1",NA,"intervention","kick something","think about something","jump up and down","<p style=""font-size: 20px;"">I would make them <strong>think about something</strong></p>",NA,NA,NA,NA,NA,NA
"subj_6",NA,NA,NA,NA,NA,"html-button-response",7,"2.0.0",107790,NA,4466,"<p style=""font-size: 25px;"">For this question, please select ""I would make them <strong>""choose what to do""</strong>""</p>","0",NA,"attention_check",NA,NA,NA,"I would make them choose what to do","choose what to do",NA,NA,NA,NA,NA
"subj_6",NA,NA,NA,NA,NA,"html-button-response",8,"2.0.0",113338,NA,5546,"<p style=""font-size: 25px;"">Which of these actions would you do to make someone <strong>get sick</strong>?</p>","0",NA,"intervention","get sick","see something","get tired","<p style=""font-size: 20px;"">I would make them <strong>get tired</strong></p>",NA,NA,NA,NA,NA,NA
"subj_6",NA,NA,NA,NA,NA,"html-button-response",9,"2.0.0",115402,NA,2063,"<p style=""font-size: 25px;"">Which of these actions would you do to make someone <strong>get tired</strong>?</p>","0",NA,"intervention","get tired","jump up and down","feel scared","<p style=""font-size: 20px;"">I would make them <strong>jump up and down</strong></p>",NA,NA,NA,NA,NA,NA
"subj_6",NA,NA,NA,NA,NA,"html-button-response",10,"2.0.0",123695,NA,8292,"<p style=""font-size: 25px;"">Which of these actions would you do to make someone <strong>jump up and down</strong>?</p>","1",NA,"intervention","jump up and down","think about something","sit down","<p style=""font-size: 20px;"">I would make them <strong>sit down</strong></p>",NA,NA,NA,NA,NA,NA
"subj_6",NA,NA,NA,NA,NA,"html-button-response",11,"2.0.0",128437,NA,4740,"<p style=""font-size: 25px;"">Which of these actions would you do to make someone <strong>feel scared</strong>?</p>","0",NA,"intervention","feel scared","see something","become hungry","<p style=""font-size: 20px;"">I would make them <strong>see something</strong></p>",NA,NA,NA,NA,NA,NA
"subj_6",NA,NA,NA,NA,NA,"html-button-response",12,"2.0.0",133264,NA,4825,"<p style=""font-size: 25px;"">Which of these actions would you do to make someone <strong>take a walk</strong>?</p>","1",NA,"intervention","take a walk","think about something","jump up and down","<p style=""font-size: 20px;"">I would make them <strong>jump up and down</strong></p>",NA,NA,NA,NA,NA,NA
"subj_6",NA,NA,NA,NA,NA,"html-button-response",13,"2.0.0",136136,NA,2870,"<p style=""font-size: 25px;"">Which of these actions would you do to make someone <strong>experience pain</strong>?</p>","0",NA,"intervention","experience pain","kick something","feel scared","<p style=""font-size: 20px;"">I would make them <strong>kick something</strong></p>",NA,NA,NA,NA,NA,NA
"subj_6",NA,NA,NA,NA,NA,"html-button-response",14,"2.0.0",142376,NA,6238,"<p style=""font-size: 25px;"">Which of these actions would you do to make someone <strong>hear something</strong>?</p>","1",NA,"intervention","hear something","take a walk","see something","<p style=""font-size: 20px;"">I would make them <strong>see something</strong></p>",NA,NA,NA,NA,NA,NA
"subj_6",NA,NA,NA,NA,NA,"html-button-response",15,"2.0.0",146037,NA,3660,"<p style=""font-size: 25px;"">Which of these actions would you do to make someone <strong>reach for something</strong>?</p>","0",NA,"intervention","reach for something","become hungry","kick something","<p style=""font-size: 20px;"">I would make them <strong>kick something</strong></p>",NA,NA,NA,NA,NA,NA
"subj_6",NA,NA,NA,NA,NA,"html-button-response",16,"2.0.0",150272,NA,4234,"<p style=""font-size: 25px;"">Which of these actions would you do to make someone <strong>sit down</strong>?</p>","1",NA,"intervention","sit down","experience pain","jump up and down","<p style=""font-size: 20px;"">I would make them <strong>jump up and down</strong></p>",NA,NA,NA,NA,NA,NA
"subj_6",NA,NA,NA,NA,NA,"html-button-response",17,"2.0.0",155218,NA,4944,"<p style=""font-size: 25px;"">Which of these actions would you do to make someone <strong>see something</strong>?</p>","0",NA,"intervention","see something","take a walk","hear something","<p style=""font-size: 20px;"">I would make them <strong>hear something</strong></p>",NA,NA,NA,NA,NA,NA
"subj_6",NA,NA,NA,NA,NA,"html-button-response",18,"2.0.0",168015,NA,12795,"<p style=""font-size: 25px;"">Which of these actions would you do to make someone <strong>choose what to do</strong>?</p>","0",NA,"intervention","choose what to do","feel scared","remember something","<p style=""font-size: 20px;"">I would make them <strong>remember something</strong></p>",NA,NA,NA,NA,NA,NA
"subj_6",NA,NA,NA,NA,NA,"instructions",19,"2.0.0",173295,NA,5278,NA,NA,"[{""page_index"":0,""viewing_time"":5278}]",NA,NA,NA,NA,NA,NA,NA,NA,NA,NA,NA
"subj_6",NA,NA,NA,NA,NA,"survey-html-form",20,"2.0.0",219444,"demographics_survey",46147,NA,"{""feedback"":""just thought about which action would make me personally do the intended outcome"",""age"":""40"",""gender"":""Male"",""other_gender"":"""",""race"":""White"",""other_race"":"""",""ethnicity"":""Hispanic""}",NA,NA,NA,NA,NA,NA,NA,"just thought about which action would make me personally do the intended outcome",40,"Hispanic","Male","White"
"subj_7",TRUE,FALSE,"[]","[]","[]","preload",0,"2.0.0",8,NA,NA,NA,NA,NA,NA,NA,NA,NA,NA,NA,NA,NA,NA,NA,NA
"subj_7",NA,NA,NA,NA,NA,"html-button-response",1,"2.0.0",172842,"consent",172833,"<p><b>Consent Form</b></p> <div style=""text-align:left;background-color:lightblue; padding:2vw; max-width:80vw;""><p><b>Purpose:</b> The purpose of this study is to understand how people think about the physical and social world.</p><p><b>Procedures:</b> In this study, you will watch videos, read sentences, or see pictures, and answer simple questions about them. This study should take approximately 4 minutes</p><p><b>Participation:</b> Participation in this study is voluntary. If you decide to join now, you can change your mind later. </p><p><b>Payment:</b> You will be paid $15.00/hour for participating in this study. Given the estimated duration of 4 minutes, your payment will amount to $1.</p><p><b>Risks and benefits:</b> There are no risks associated with participating in this study. There are no direct benefits associated with participating in this study. </p><p><b>Use of data by study researchers:</b> The research team led by Shari Liu at JHU will have access to your answers. </p><p><b>Publication of results:</b> The results of the research may be presented at scientific meetings or published in scientific journals. Your individual responses may be published. We will never publish your name, the date that you participated, and any other information that could be used to identify you. </p><p><b>Researcher contact information:</b> This study is run by Dr. Shari Liu at JHU. If you have any questions or concerns about this study, or in the very unlikely event of a research-related injury, please contact sliu199@jhu.edu. </p><p><b>Research rights information:</b> If you have questions about your rights as a research participant or feel that you have not been treated fairly, please call the Homewood Institutional Review Board at Johns Hopkins University at (410) 516-6580. If you have any questions or issues completing the survey, please email Shari Liu at sliu199@jhu.edu. </p> </div><p> Do you consent to participate? </p>","0",NA,NA,NA,NA,NA,NA,NA,NA,NA,NA,NA,NA
"subj_7",NA,NA,NA,NA,NA,"instructions",2,"2.0.0",182178,NA,9335,NA,NA,"[{""page_index"":0,""viewing_time"":9335}]",NA,NA,NA,NA,NA,NA,NA,NA,NA,NA,NA
"subj_7",NA,NA,NA,NA,NA,"html-button-response",3,"2.0.0",187698,NA,5520,"<p style=""font-size: 25px;"">Which of these actions would you do to make someone <strong>get sick</strong>?</p>","1",NA,"intervention","get sick","see something","get tired","<p style=""font-size: 20px;"">I would make them <strong>get tired</strong></p>",NA,NA,NA,NA,NA,NA
"subj_7",NA,NA,NA,NA,NA,"html-button-response",4,"2.0.0",190995,NA,3295,"<p style=""font-size: 25px;"">Which of these actions would you do to make someone <strong>feel scared</strong>?</p>","0",NA,"intervention","feel scared","see something","become hungry","<p style=""font-size: 20px;"">I would make them <strong>see something</strong></p>",NA,NA,NA,NA,NA,NA
"subj_7",NA,NA,NA,NA,NA,"html-button-response",5,"2.0.0",195326,NA,4330,"<p style=""font-size: 25px;"">Which of these actions would you do to make someone <strong>think about something</strong>?</p>","0",NA,"intervention","think about something","take a walk","remember something","<p style=""font-size: 20px;"">I would make them <strong>remember something</strong></p>",NA,NA,NA,NA,NA,NA
"subj_7",NA,NA,NA,NA,NA,"html-button-response",6,"2.0.0",201217,NA,5889,"<p style=""font-size: 25px;"">Which of these actions would you do to make someone <strong>experience pain</strong>?</p>","0",NA,"intervention","experience pain","kick something","feel scared","<p style=""font-size: 20px;"">I would make them <strong>feel scared</strong></p>",NA,NA,NA,NA,NA,NA
"subj_7",NA,NA,NA,NA,NA,"html-button-response",7,"2.0.0",207160,NA,5943,"<p style=""font-size: 25px;"">Which of these actions would you do to make someone <strong>jump up and down</strong>?</p>","1",NA,"intervention","jump up and down","think about something","sit down","<p style=""font-size: 20px;"">I would make them <strong>think about something</strong></p>",NA,NA,NA,NA,NA,NA
"subj_7",NA,NA,NA,NA,NA,"html-button-response",8,"2.0.0",212786,NA,5624,"<p style=""font-size: 25px;"">Which of these actions would you do to make someone <strong>become hungry</strong>?</p>","0",NA,"intervention","become hungry","take a walk","experience pain","<p style=""font-size: 20px;"">I would make them <strong>take a walk</strong></p>",NA,NA,NA,NA,NA,NA
"subj_7",NA,NA,NA,NA,NA,"html-button-response",9,"2.0.0",215801,NA,3014,"<p style=""font-size: 25px;"">Which of these actions would you do to make someone <strong>see something</strong>?</p>","0",NA,"intervention","see something","take a walk","hear something","<p style=""font-size: 20px;"">I would make them <strong>take a walk</strong></p>",NA,NA,NA,NA,NA,NA
"subj_7",NA,NA,NA,NA,NA,"html-button-response",10,"2.0.0",218499,NA,2697,"<p style=""font-size: 25px;"">For this question, please select ""I would make them <strong>""choose what to do""</strong>""</p>","0",NA,"attention_check",NA,NA,NA,"I would make them choose what to do","choose what to do",NA,NA,NA,NA,NA
"subj_7",NA,NA,NA,NA,NA,"html-button-response",11,"2.0.0",220937,NA,2435,"<p style=""font-size: 25px;"">Which of these actions would you do to make someone <strong>reach for something</strong>?</p>","1",NA,"intervention","reach for something","become hungry","kick something","<p style=""font-size: 20px;"">I would make them <strong>kick something</strong></p>",NA,NA,NA,NA,NA,NA
"subj_7",NA,NA,NA,NA,NA,"html-button-response",12,"2.0.0",226514,NA,5578,"<p style=""font-size: 25px;"">Which of these actions would you do to make someone <strong>sit down</strong>?</p>","0",NA,"intervention","sit down","experience pain","jump up and down","<p style=""font-size: 20px;"">I would make them <strong>experience pain</strong></p>",NA,NA,NA,NA,NA,NA
"subj_7",NA,NA,NA,NA,NA,"html-button-response",13,"2.0.0",228920,NA,2404,"<p style=""font-size: 25px;"">Which of these actions would you do to make someone <strong>hear something</strong>?</p>","0",NA,"intervention","hear something","take a walk","see something","<p style=""font-size: 20px;"">I would make them <strong>take a walk</strong></p>",NA,NA,NA,NA,NA,NA
"subj_7",NA,NA,NA,NA,NA,"html-button-response",14,"2.0.0",233510,NA,4590,"<p style=""font-size: 25px;"">Which of these actions would you do to make someone <strong>kick something</strong>?</p>","0",NA,"intervention","kick something","think about something","jump up and down","<p style=""font-size: 20px;"">I would make them <strong>think about something</strong></p>",NA,NA,NA,NA,NA,NA
"subj_7",NA,NA,NA,NA,NA,"html-button-response",15,"2.0.0",237070,NA,3561,"<p style=""font-size: 25px;"">Which of these actions would you do to make someone <strong>get tired</strong>?</p>","1",NA,"intervention","get tired","jump up and down","feel scared","<p style=""font-size: 20px;"">I would make them <strong>jump up and down</strong></p>",NA,NA,NA,NA,NA,NA
"subj_7",NA,NA,NA,NA,NA,"html-button-response",16,"2.0.0",239980,NA,2907,"<p style=""font-size: 25px;"">Which of these actions would you do to make someone <strong>take a walk</strong>?</p>","1",NA,"intervention","take a walk","think about something","jump up and down","<p style=""font-size: 20px;"">I would make them <strong>think about something</strong></p>",NA,NA,NA,NA,NA,NA
"subj_7",NA,NA,NA,NA,NA,"html-button-response",17,"2.0.0",244032,NA,4053,"<p style=""font-size: 25px;"">Which of these actions would you do to make someone <strong>remember something</strong>?</p>","1",NA,"intervention","remember something","take a walk","think about something","<p style=""font-size: 20px;"">I would make them <strong>think about something</strong></p>",NA,NA,NA,NA,NA,NA
"subj_7",NA,NA,NA,NA,NA,"html-button-response",18,"2.0.0",247209,NA,3175,"<p style=""font-size: 25px;"">Which of these actions would you do to make someone <strong>choose what to do</strong>?</p>","0",NA,"intervention","choose what to do","feel scared","remember something","<p style=""font-size: 20px;"">I would make them <strong>remember something</strong></p>",NA,NA,NA,NA,NA,NA
"subj_7",NA,NA,NA,NA,NA,"instructions",19,"2.0.0",250718,NA,3507,NA,NA,"[{""page_index"":0,""viewing_time"":3507}]",NA,NA,NA,NA,NA,NA,NA,NA,NA,NA,NA
"subj_7",NA,NA,NA,NA,NA,"survey-html-form",20,"2.0.0",274347,"demographics_survey",23628,NA,"{""feedback"":""Just the most common answer"",""age"":""33"",""gender"":""Male"",""other_gender"":"""",""race"":""Asian"",""other_race"":"""",""ethnicity"":""Non-Hispanic""}",NA,NA,NA,NA,NA,NA,NA,"Just the most common answer",33,"Non-Hispanic","Male","Asian"
"subj_8",TRUE,FALSE,"[]","[]","[]","preload",0,"2.0.0",8,NA,NA,NA,NA,NA,NA,NA,NA,NA,NA,NA,NA,NA,NA,NA,NA
"subj_8",NA,NA,NA,NA,NA,"html-button-response",1,"2.0.0",5065,"consent",5055,"<p><b>Consent Form</b></p> <div style=""text-align:left;background-color:lightblue; padding:2vw; max-width:80vw;""><p><b>Purpose:</b> The purpose of this study is to understand how people think about the physical and social world.</p><p><b>Procedures:</b> In this study, you will watch videos, read sentences, or see pictures, and answer simple questions about them. This study should take approximately 4 minutes</p><p><b>Participation:</b> Participation in this study is voluntary. If you decide to join now, you can change your mind later. </p><p><b>Payment:</b> You will be paid $15.00/hour for participating in this study. Given the estimated duration of 4 minutes, your payment will amount to $1.</p><p><b>Risks and benefits:</b> There are no risks associated with participating in this study. There are no direct benefits associated with participating in this study. </p><p><b>Use of data by study researchers:</b> The research team led by Shari Liu at JHU will have access to your answers. </p><p><b>Publication of results:</b> The results of the research may be presented at scientific meetings or published in scientific journals. Your individual responses may be published. We will never publish your name, the date that you participated, and any other information that could be used to identify you. </p><p><b>Researcher contact information:</b> This study is run by Dr. Shari Liu at JHU. If you have any questions or concerns about this study, or in the very unlikely event of a research-related injury, please contact sliu199@jhu.edu. </p><p><b>Research rights information:</b> If you have questions about your rights as a research participant or feel that you have not been treated fairly, please call the Homewood Institutional Review Board at Johns Hopkins University at (410) 516-6580. If you have any questions or issues completing the survey, please email Shari Liu at sliu199@jhu.edu. </p> </div><p> Do you consent to participate? </p>","0",NA,NA,NA,NA,NA,NA,NA,NA,NA,NA,NA,NA
"subj_8",NA,NA,NA,NA,NA,"instructions",2,"2.0.0",19623,NA,14558,NA,NA,"[{""page_index"":0,""viewing_time"":14558}]",NA,NA,NA,NA,NA,NA,NA,NA,NA,NA,NA
"subj_8",NA,NA,NA,NA,NA,"html-button-response",3,"2.0.0",26960,NA,7336,"<p style=""font-size: 25px;"">Suppose someone told you about a creature that could <strong>see something</strong>. <br>Which of these two other abilities do you think the creature would also have?</p>","1",NA,"similarity","see something","take a walk","hear something","<p style=""font-size: 20px;"">The ability to <strong>hear something</strong></p>",NA,NA,NA,NA,NA,NA
"subj_8",NA,NA,NA,NA,NA,"html-button-response",4,"2.0.0",31506,NA,4546,"<p style=""font-size: 25px;"">Suppose someone told you about a creature that could <strong>choose what to do</strong>. <br>Which of these two other abilities do you think the creature would also have?</p>","1",NA,"similarity","choose what to do","feel scared","remember something","<p style=""font-size: 20px;"">The ability to <strong>remember something</strong></p>",NA,NA,NA,NA,NA,NA
"subj_8",NA,NA,NA,NA,NA,"html-button-response",5,"2.0.0",37319,NA,5811,"<p style=""font-size: 25px;"">Suppose someone told you about a creature that could <strong>hear something</strong>. <br>Which of these two other abilities do you think the creature would also have?</p>","0",NA,"similarity","hear something","take a walk","see something","<p style=""font-size: 20px;"">The ability to <strong>take a walk</strong></p>",NA,NA,NA,NA,NA,NA
"subj_8",NA,NA,NA,NA,NA,"html-button-response",6,"2.0.0",42951,NA,5631,"<p style=""font-size: 25px;"">Suppose someone told you about a creature that could <strong>think about something</strong>. <br>Which of these two other abilities do you think the creature would also have?</p>","0",NA,"similarity","think about something","take a walk","remember something","<p style=""font-size: 20px;"">The ability to <strong>remember something</strong></p>",NA,NA,NA,NA,NA,NA
"subj_8",NA,NA,NA,NA,NA,"html-button-response",7,"2.0.0",52139,NA,9186,"<p style=""font-size: 25px;"">Suppose someone told you about a creature that could <strong>reach for something</strong>. <br>Which of these two other abilities do you think the creature would also have?</p>","0",NA,"similarity","reach for something","become hungry","kick something","<p style=""font-size: 20px;"">The ability to <strong>become hungry</strong></p>",NA,NA,NA,NA,NA,NA
"subj_8",NA,NA,NA,NA,NA,"html-button-response",8,"2.0.0",59327,NA,7188,"<p style=""font-size: 25px;"">Suppose someone told you about a creature that could <strong>sit down</strong>. <br>Which of these two other abilities do you think the creature would also have?</p>","1",NA,"similarity","sit down","experience pain","jump up and down","<p style=""font-size: 20px;"">The ability to <strong>jump up and down</strong></p>",NA,NA,NA,NA,NA,NA
"subj_8",NA,NA,NA,NA,NA,"html-button-response",9,"2.0.0",63358,NA,4029,"<p style=""font-size: 25px;"">Suppose someone told you about a creature that could <strong>get tired</strong>. <br>Which of these two other abilities do you think the creature would also have?</p>","1",NA,"similarity","get tired","jump up and down","feel scared","<p style=""font-size: 20px;"">The ability to <strong>feel scared</strong></p>",NA,NA,NA,NA,NA,NA
"subj_8",NA,NA,NA,NA,NA,"html-button-response",10,"2.0.0",67859,NA,4500,"<p style=""font-size: 25px;"">Suppose someone told you about a creature that could <strong>get sick</strong>. <br>Which of these two other abilities do you think the creature would also have?</p>","1",NA,"similarity","get sick","see something","get tired","<p style=""font-size: 20px;"">The ability to <strong>get tired</strong></p>",NA,NA,NA,NA,NA,NA
"subj_8",NA,NA,NA,NA,NA,"html-button-response",11,"2.0.0",70817,NA,2957,"<p style=""font-size: 25px;"">Suppose someone told you about a creature that could <strong>become hungry</strong>. <br>Which of these two other abilities do you think the creature would also have?</p>","0",NA,"similarity","become hungry","take a walk","experience pain","<p style=""font-size: 20px;"">The ability to <strong>experience pain</strong></p>",NA,NA,NA,NA,NA,NA
"subj_8",NA,NA,NA,NA,NA,"html-button-response",12,"2.0.0",73453,NA,2635,"<p style=""font-size: 25px;"">Suppose someone told you about a creature that could <strong>kick something</strong>. <br>Which of these two other abilities do you think the creature would also have?</p>","1",NA,"similarity","kick something","think about something","jump up and down","<p style=""font-size: 20px;"">The ability to <strong>jump up and down</strong></p>",NA,NA,NA,NA,NA,NA
"subj_8",NA,NA,NA,NA,NA,"html-button-response",13,"2.0.0",77022,NA,3568,"<p style=""font-size: 25px;"">Suppose someone told you about a creature that could <strong>remember something</strong>. <br>Which of these two other abilities do you think the creature would also have?</p>","1",NA,"similarity","remember something","take a walk","think about something","<p style=""font-size: 20px;"">The ability to <strong>think about something</strong></p>",NA,NA,NA,NA,NA,NA
"subj_8",NA,NA,NA,NA,NA,"html-button-response",14,"2.0.0",85768,NA,8745,"<p style=""font-size: 25px;"">For this question, please select ""The ability to <strong>choose what to do</strong>""</p>","0",NA,"attention_check",NA,NA,NA,"The ability to choose what to do","choose what to do",NA,NA,NA,NA,NA
"subj_8",NA,NA,NA,NA,NA,"html-button-response",15,"2.0.0",89282,NA,3513,"<p style=""font-size: 25px;"">Suppose someone told you about a creature that could <strong>experience pain</strong>. <br>Which of these two other abilities do you think the creature would also have?</p>","0",NA,"similarity","experience pain","kick something","feel scared","<p style=""font-size: 20px;"">The ability to <strong>feel scared</strong></p>",NA,NA,NA,NA,NA,NA
"subj_8",NA,NA,NA,NA,NA,"html-button-response",16,"2.0.0",92226,NA,2944,"<p style=""font-size: 25px;"">Suppose someone told you about a creature that could <strong>take a walk</strong>. <br>Which of these two other abilities do you think the creature would also have?</p>","1",NA,"similarity","take a walk","think about something","jump up and down","<p style=""font-size: 20px;"">The ability to <strong>jump up and down</strong></p>",NA,NA,NA,NA,NA,NA
"subj_8",NA,NA,NA,NA,NA,"html-button-response",17,"2.0.0",94639,NA,2412,"<p style=""font-size: 25px;"">Suppose someone told you about a creature that could <strong>jump up and down</strong>. <br>Which of these two other abilities do you think the creature would also have?</p>","1",NA,"similarity","jump up and down","think about something","sit down","<p style=""font-size: 20px;"">The ability to <strong>sit down</strong></p>",NA,NA,NA,NA,NA,NA
"subj_8",NA,NA,NA,NA,NA,"html-button-response",18,"2.0.0",97289,NA,2649,"<p style=""font-size: 25px;"">Suppose someone told you about a creature that could <strong>feel scared</strong>. <br>Which of these two other abilities do you think the creature would also have?</p>","1",NA,"similarity","feel scared","see something","become hungry","<p style=""font-size: 20px;"">The ability to <strong>become hungry</strong></p>",NA,NA,NA,NA,NA,NA
"subj_8",NA,NA,NA,NA,NA,"instructions",19,"2.0.0",101627,NA,4337,NA,NA,"[{""page_index"":0,""viewing_time"":4337}]",NA,NA,NA,NA,NA,NA,NA,NA,NA,NA,NA
"subj_8",NA,NA,NA,NA,NA,"survey-html-form",20,"2.0.0",139610,"demographics_survey",37982,NA,"{""feedback"":""How similar they seemed, whether abilities seemed related."",""age"":""32"",""gender"":""Male"",""other_gender"":"""",""race"":""White"",""other_race"":"""",""ethnicity"":""Non-Hispanic""}",NA,NA,NA,NA,NA,NA,NA,"How similar they seemed, whether abilities seemed related.",32,"Non-Hispanic","Male","White"
"subj_9",TRUE,FALSE,"[]","[]","[]","preload",0,"2.0.0",4,NA,NA,NA,NA,NA,NA,NA,NA,NA,NA,NA,NA,NA,NA,NA,NA
"subj_9",NA,NA,NA,NA,NA,"html-button-response",1,"2.0.0",2409,"consent",2404,"<p><b>Consent Form</b></p> <div style=""text-align:left;background-color:lightblue; padding:2vw; max-width:80vw;""><p><b>Purpose:</b> The purpose of this study is to understand how people think about the physical and social world.</p><p><b>Procedures:</b> In this study, you will watch videos, read sentences, or see pictures, and answer simple questions about them. This study should take approximately 4 minutes</p><p><b>Participation:</b> Participation in this study is voluntary. If you decide to join now, you can change your mind later. </p><p><b>Payment:</b> You will be paid $15.00/hour for participating in this study. Given the estimated duration of 4 minutes, your payment will amount to $1.</p><p><b>Risks and benefits:</b> There are no risks associated with participating in this study. There are no direct benefits associated with participating in this study. </p><p><b>Use of data by study researchers:</b> The research team led by Shari Liu at JHU will have access to your answers. </p><p><b>Publication of results:</b> The results of the research may be presented at scientific meetings or published in scientific journals. Your individual responses may be published. We will never publish your name, the date that you participated, and any other information that could be used to identify you. </p><p><b>Researcher contact information:</b> This study is run by Dr. Shari Liu at JHU. If you have any questions or concerns about this study, or in the very unlikely event of a research-related injury, please contact sliu199@jhu.edu. </p><p><b>Research rights information:</b> If you have questions about your rights as a research participant or feel that you have not been treated fairly, please call the Homewood Institutional Review Board at Johns Hopkins University at (410) 516-6580. If you have any questions or issues completing the survey, please email Shari Liu at sliu199@jhu.edu. </p> </div><p> Do you consent to participate? </p>","0",NA,NA,NA,NA,NA,NA,NA,NA,NA,NA,NA,NA
"subj_9",NA,NA,NA,NA,NA,"instructions",2,"2.0.0",19239,NA,16829,NA,NA,"[{""page_index"":0,""viewing_time"":16829}]",NA,NA,NA,NA,NA,NA,NA,NA,NA,NA,NA
"subj_9",NA,NA,NA,NA,NA,"html-button-response",3,"2.0.0",31554,NA,12314,"<p style=""font-size: 25px;"">Suppose someone told you about a creature that could <strong>kick something</strong>. <br>Which of these two other abilities do you think the creature would also have?</p>","0",NA,"similarity","kick something","think about something","jump up and down","<p style=""font-size: 20px;"">The ability to <strong>jump up and down</strong></p>",NA,NA,NA,NA,NA,NA
"subj_9",NA,NA,NA,NA,NA,"html-button-response",4,"2.0.0",39295,NA,7740,"<p style=""font-size: 25px;"">Suppose someone told you about a creature that could <strong>choose what to do</strong>. <br>Which of these two other abilities do you think the creature would also have?</p>","0",NA,"similarity","choose what to do","feel scared","remember something","<p style=""font-size: 20px;"">The ability to <strong>remember something</strong></p>",NA,NA,NA,NA,NA,NA
"subj_9",NA,NA,NA,NA,NA,"html-button-response",5,"2.0.0",54041,NA,14745,"<p style=""font-size: 25px;"">Suppose someone told you about a creature that could <strong>jump up and down</strong>. <br>Which of these two other abilities do you think the creature would also have?</p>","0",NA,"similarity","jump up and down","think about something","sit down","<p style=""font-size: 20px;"">The ability to <strong>think about something</strong></p>",NA,NA,NA,NA,NA,NA
"subj_9",NA,NA,NA,NA,NA,"html-button-response",6,"2.0.0",59717,NA,5675,"<p style=""font-size: 25px;"">Suppose someone told you about a creature that could <strong>hear something</strong>. <br>Which of these two other abilities do you think the creature would also have?</p>","0",NA,"similarity","hear something","take a walk","see something","<p style=""font-size: 20px;"">The ability to <strong>see something</strong></p>",NA,NA,NA,NA,NA,NA
"subj_9",NA,NA,NA,NA,NA,"html-button-response",7,"2.0.0",69467,NA,9749,"<p style=""font-size: 25px;"">Suppose someone told you about a creature that could <strong>see something</strong>. <br>Which of these two other abilities do you think the creature would also have?</p>","0",NA,"similarity","see something","take a walk","hear something","<p style=""font-size: 20px;"">The ability to <strong>hear something</strong></p>",NA,NA,NA,NA,NA,NA
"subj_9",NA,NA,NA,NA,NA,"html-button-response",8,"2.0.0",74065,NA,4597,"<p style=""font-size: 25px;"">Suppose someone told you about a creature that could <strong>sit down</strong>. <br>Which of these two other abilities do you think the creature would also have?</p>","1",NA,"similarity","sit down","experience pain","jump up and down","<p style=""font-size: 20px;"">The ability to <strong>jump up and down</strong></p>",NA,NA,NA,NA,NA,NA
"subj_9",NA,NA,NA,NA,NA,"html-button-response",9,"2.0.0",86278,NA,12212,"<p style=""font-size: 25px;"">Suppose someone told you about a creature that could <strong>become hungry</strong>. <br>Which of these two other abilities do you think the creature would also have?</p>","1",NA,"similarity","become hungry","take a walk","experience pain","<p style=""font-size: 20px;"">The ability to <strong>experience pain</strong></p>",NA,NA,NA,NA,NA,NA
"subj_9",NA,NA,NA,NA,NA,"html-button-response",10,"2.0.0",89867,NA,3588,"<p style=""font-size: 25px;"">Suppose someone told you about a creature that could <strong>think about something</strong>. <br>Which of these two other abilities do you think the creature would also have?</p>","1",NA,"similarity","think about something","take a walk","remember something","<p style=""font-size: 20px;"">The ability to <strong>remember something</strong></p>",NA,NA,NA,NA,NA,NA
"subj_9",NA,NA,NA,NA,NA,"html-button-response",11,"2.0.0",94769,NA,4901,"<p style=""font-size: 25px;"">Suppose someone told you about a creature that could <strong>take a walk</strong>. <br>Which of these two other abilities do you think the creature would also have?</p>","0",NA,"similarity","take a walk","think about something","jump up and down","<p style=""font-size: 20px;"">The ability to <strong>jump up and down</strong></p>",NA,NA,NA,NA,NA,NA
"subj_9",NA,NA,NA,NA,NA,"html-button-response",12,"2.0.0",100191,NA,5421,"<p style=""font-size: 25px;"">Suppose someone told you about a creature that could <strong>get tired</strong>. <br>Which of these two other abilities do you think the creature would also have?</p>","1",NA,"similarity","get tired","jump up and down","feel scared","<p style=""font-size: 20px;"">The ability to <strong>jump up and down</strong></p>",NA,NA,NA,NA,NA,NA
"subj_9",NA,NA,NA,NA,NA,"html-button-response",13,"2.0.0",104733,NA,4542,"<p style=""font-size: 25px;"">For this question, please select ""The ability to <strong>choose what to do</strong>""</p>","0",NA,"attention_check",NA,NA,NA,"The ability to choose what to do","choose what to do",NA,NA,NA,NA,NA
"subj_9",NA,NA,NA,NA,NA,"html-button-response",14,"2.0.0",148373,NA,43639,"<p style=""font-size: 25px;"">Suppose someone told you about a creature that could <strong>reach for something</strong>. <br>Which of these two other abilities do you think the creature would also have?</p>","1",NA,"similarity","reach for something","become hungry","kick something","<p style=""font-size: 20px;"">The ability to <strong>kick something</strong></p>",NA,NA,NA,NA,NA,NA
"subj_9",NA,NA,NA,NA,NA,"html-button-response",15,"2.0.0",152950,NA,4576,"<p style=""font-size: 25px;"">Suppose someone told you about a creature that could <strong>feel scared</strong>. <br>Which of these two other abilities do you think the creature would also have?</p>","0",NA,"similarity","feel scared","see something","become hungry","<p style=""font-size: 20px;"">The ability to <strong>see something</strong></p>",NA,NA,NA,NA,NA,NA
"subj_9",NA,NA,NA,NA,NA,"html-button-response",16,"2.0.0",158022,NA,5071,"<p style=""font-size: 25px;"">Suppose someone told you about a creature that could <strong>experience pain</strong>. <br>Which of these two other abilities do you think the creature would also have?</p>","0",NA,"similarity","experience pain","kick something","feel scared","<p style=""font-size: 20px;"">The ability to <strong>kick something</strong></p>",NA,NA,NA,NA,NA,NA
"subj_9",NA,NA,NA,NA,NA,"html-button-response",17,"2.0.0",160454,NA,2430,"<p style=""font-size: 25px;"">Suppose someone told you about a creature that could <strong>remember something</strong>. <br>Which of these two other abilities do you think the creature would also have?</p>","0",NA,"similarity","remember something","take a walk","think about something","<p style=""font-size: 20px;"">The ability to <strong>think about something</strong></p>",NA,NA,NA,NA,NA,NA
"subj_9",NA,NA,NA,NA,NA,"html-button-response",18,"2.0.0",164787,NA,4333,"<p style=""font-size: 25px;"">Suppose someone told you about a creature that could <strong>get sick</strong>. <br>Which of these two other abilities do you think the creature would also have?</p>","0",NA,"similarity","get sick","see something","get tired","<p style=""font-size: 20px;"">The ability to <strong>get tired</strong></p>",NA,NA,NA,NA,NA,NA
"subj_9",NA,NA,NA,NA,NA,"instructions",19,"2.0.0",173812,NA,9024,NA,NA,"[{""page_index"":0,""viewing_time"":9024}]",NA,NA,NA,NA,NA,NA,NA,NA,NA,NA,NA
"subj_9",NA,NA,NA,NA,NA,"survey-html-form",20,"2.0.0",208481,"demographics_survey",34667,NA,"{""feedback"":""I just choose the option I though would go best with whatever the target ability was."",""age"":""31"",""gender"":""Female"",""other_gender"":"""",""race"":""White"",""other_race"":"""",""ethnicity"":""Non-Hispanic""}",NA,NA,NA,NA,NA,NA,NA,"I just choose the option I though would go best with whatever the target ability was.",31,"Non-Hispanic","Female","White"
"subj_10",TRUE,FALSE,"[]","[]","[]","preload",0,"2.0.0",6,NA,NA,NA,NA,NA,NA,NA,NA,NA,NA,NA,NA,NA,NA,NA,NA
"subj_10",NA,NA,NA,NA,NA,"html-button-response",1,"2.0.0",7818,"consent",7812,"<p><b>Consent Form</b></p> <div style=""text-align:left;background-color:lightblue; padding:2vw; max-width:80vw;""><p><b>Purpose:</b> The purpose of this study is to understand how people think about the physical and social world.</p><p><b>Procedures:</b> In this study, you will watch videos, read sentences, or see pictures, and answer simple questions about them. This study should take approximately 4 minutes</p><p><b>Participation:</b> Participation in this study is voluntary. If you decide to join now, you can change your mind later. </p><p><b>Payment:</b> You will be paid $15.00/hour for participating in this study. Given the estimated duration of 4 minutes, your payment will amount to $1.</p><p><b>Risks and benefits:</b> There are no risks associated with participating in this study. There are no direct benefits associated with participating in this study. </p><p><b>Use of data by study researchers:</b> The research team led by Shari Liu at JHU will have access to your answers. </p><p><b>Publication of results:</b> The results of the research may be presented at scientific meetings or published in scientific journals. Your individual responses may be published. We will never publish your name, the date that you participated, and any other information that could be used to identify you. </p><p><b>Researcher contact information:</b> This study is run by Dr. Shari Liu at JHU. If you have any questions or concerns about this study, or in the very unlikely event of a research-related injury, please contact sliu199@jhu.edu. </p><p><b>Research rights information:</b> If you have questions about your rights as a research participant or feel that you have not been treated fairly, please call the Homewood Institutional Review Board at Johns Hopkins University at (410) 516-6580. If you have any questions or issues completing the survey, please email Shari Liu at sliu199@jhu.edu. </p> </div><p> Do you consent to participate? </p>","0",NA,NA,NA,NA,NA,NA,NA,NA,NA,NA,NA,NA
"subj_10",NA,NA,NA,NA,NA,"instructions",2,"2.0.0",15894,NA,8074,NA,NA,"[{""page_index"":0,""viewing_time"":8074}]",NA,NA,NA,NA,NA,NA,NA,NA,NA,NA,NA
"subj_10",NA,NA,NA,NA,NA,"html-button-response",3,"2.0.0",21165,NA,5270,"<p style=""font-size: 25px;"">Suppose someone told you about a creature that could <strong>get sick</strong>. <br>Which of these two other abilities do you think the creature would also have?</p>","1",NA,"similarity","get sick","see something","get tired","<p style=""font-size: 20px;"">The ability to <strong>get tired</strong></p>",NA,NA,NA,NA,NA,NA
"subj_10",NA,NA,NA,NA,NA,"html-button-response",4,"2.0.0",23964,NA,2798,"<p style=""font-size: 25px;"">Suppose someone told you about a creature that could <strong>take a walk</strong>. <br>Which of these two other abilities do you think the creature would also have?</p>","1",NA,"similarity","take a walk","think about something","jump up and down","<p style=""font-size: 20px;"">The ability to <strong>jump up and down</strong></p>",NA,NA,NA,NA,NA,NA
"subj_10",NA,NA,NA,NA,NA,"html-button-response",5,"2.0.0",26386,NA,2421,"<p style=""font-size: 25px;"">Suppose someone told you about a creature that could <strong>become hungry</strong>. <br>Which of these two other abilities do you think the creature would also have?</p>","0",NA,"similarity","become hungry","take a walk","experience pain","<p style=""font-size: 20px;"">The ability to <strong>experience pain</strong></p>",NA,NA,NA,NA,NA,NA
"subj_10",NA,NA,NA,NA,NA,"html-button-response",6,"2.0.0",31015,NA,4629,"<p style=""font-size: 25px;"">Suppose someone told you about a creature that could <strong>remember something</strong>. <br>Which of these two other abilities do you think the creature would also have?</p>","0",NA,"similarity","remember something","take a walk","think about something","<p style=""font-size: 20px;"">The ability to <strong>think about something</strong></p>",NA,NA,NA,NA,NA,NA
"subj_10",NA,NA,NA,NA,NA,"html-button-response",7,"2.0.0",37011,NA,5995,"<p style=""font-size: 25px;"">Suppose someone told you about a creature that could <strong>think about something</strong>. <br>Which of these two other abilities do you think the creature would also have?</p>","0",NA,"similarity","think about something","take a walk","remember something","<p style=""font-size: 20px;"">The ability to <strong>remember something</strong></p>",NA,NA,NA,NA,NA,NA
"subj_10",NA,NA,NA,NA,NA,"html-button-response",8,"2.0.0",40718,NA,3707,"<p style=""font-size: 25px;"">Suppose someone told you about a creature that could <strong>reach for something</strong>. <br>Which of these two other abilities do you think the creature would also have?</p>","1",NA,"similarity","reach for something","become hungry","kick something","<p style=""font-size: 20px;"">The ability to <strong>kick something</strong></p>",NA,NA,NA,NA,NA,NA
"subj_10",NA,NA,NA,NA,NA,"html-button-response",9,"2.0.0",45436,NA,4716,"<p style=""font-size: 25px;"">Suppose someone told you about a creature that could <strong>kick something</strong>. <br>Which of these two other abilities do you think the creature would also have?</p>","0",NA,"similarity","kick something","think about something","jump up and down","<p style=""font-size: 20px;"">The ability to <strong>jump up and down</strong></p>",NA,NA,NA,NA,NA,NA
"subj_10",NA,NA,NA,NA,NA,"html-button-response",10,"2.0.0",51890,NA,6453,"<p style=""font-size: 25px;"">For this question, please select ""The ability to <strong>choose what to do</strong>""</p>","0",NA,"attention_check",NA,NA,NA,"The ability to choose what to do","choose what to do",NA,NA,NA,NA,NA
"subj_10",NA,NA,NA,NA,NA,"html-button-response",11,"2.0.0",57342,NA,5451,"<p style=""font-size: 25px;"">Suppose someone told you about a creature that could <strong>see something</strong>. <br>Which of these two other abilities do you think the creature would also have?</p>","0",NA,"similarity","see something","take a walk","hear something","<p style=""font-size: 20px;"">The ability to <strong>hear something</strong></p>",NA,NA,NA,NA,NA,NA
"subj_10",NA,NA,NA,NA,NA,"html-button-response",12,"2.0.0",60343,NA,3002,"<p style=""font-size: 25px;"">Suppose someone told you about a creature that could <strong>experience pain</strong>. <br>Which of these two other abilities do you think the creature would also have?</p>","1",NA,"similarity","experience pain","kick something","feel scared","<p style=""font-size: 20px;"">The ability to <strong>feel scared</strong></p>",NA,NA,NA,NA,NA,NA
"subj_10",NA,NA,NA,NA,NA,"html-button-response",13,"2.0.0",64919,NA,4574,"<p style=""font-size: 25px;"">Suppose someone told you about a creature that could <strong>jump up and down</strong>. <br>Which of these two other abilities do you think the creature would also have?</p>","0",NA,"similarity","jump up and down","think about something","sit down","<p style=""font-size: 20px;"">The ability to <strong>sit down</strong></p>",NA,NA,NA,NA,NA,NA
"subj_10",NA,NA,NA,NA,NA,"html-button-response",14,"2.0.0",69837,NA,4917,"<p style=""font-size: 25px;"">Suppose someone told you about a creature that could <strong>sit down</strong>. <br>Which of these two other abilities do you think the creature would also have?</p>","1",NA,"similarity","sit down","experience pain","jump up and down","<p style=""font-size: 20px;"">The ability to <strong>jump up and down</strong></p>",NA,NA,NA,NA,NA,NA
"subj_10",NA,NA,NA,NA,NA,"html-button-response",15,"2.0.0",79306,NA,9469,"<p style=""font-size: 25px;"">Suppose someone told you about a creature that could <strong>choose what to do</strong>. <br>Which of these two other abilities do you think the creature would also have?</p>","1",NA,"similarity","choose what to do","feel scared","remember something","<p style=""font-size: 20px;"">The ability to <strong>remember something</strong></p>",NA,NA,NA,NA,NA,NA
"subj_10",NA,NA,NA,NA,NA,"html-button-response",16,"2.0.0",83100,NA,3793,"<p style=""font-size: 25px;"">Suppose someone told you about a creature that could <strong>get tired</strong>. <br>Which of these two other abilities do you think the creature would also have?</p>","0",NA,"similarity","get tired","jump up and down","feel scared","<p style=""font-size: 20px;"">The ability to <strong>feel scared</strong></p>",NA,NA,NA,NA,NA,NA
"subj_10",NA,NA,NA,NA,NA,"html-button-response",17,"2.0.0",88020,NA,4920,"<p style=""font-size: 25px;"">Suppose someone told you about a creature that could <strong>hear something</strong>. <br>Which of these two other abilities do you think the creature would also have?</p>","1",NA,"similarity","hear something","take a walk","see something","<p style=""font-size: 20px;"">The ability to <strong>see something</strong></p>",NA,NA,NA,NA,NA,NA
"subj_10",NA,NA,NA,NA,NA,"html-button-response",18,"2.0.0",93453,NA,5432,"<p style=""font-size: 25px;"">Suppose someone told you about a creature that could <strong>feel scared</strong>. <br>Which of these two other abilities do you think the creature would also have?</p>","0",NA,"similarity","feel scared","see something","become hungry","<p style=""font-size: 20px;"">The ability to <strong>see something</strong></p>",NA,NA,NA,NA,NA,NA
"subj_10",NA,NA,NA,NA,NA,"instructions",19,"2.0.0",99020,NA,5567,NA,NA,"[{""page_index"":0,""viewing_time"":5567}]",NA,NA,NA,NA,NA,NA,NA,NA,NA,NA,NA
"subj_10",NA,NA,NA,NA,NA,"survey-html-form",20,"2.0.0",161430,"demographics_survey",62408,NA,"{""feedback"":""For actions, it linked to imagining the limbs the creature would have. For more thought or feeling based ones, I imagined what senses or experiences would lead it to do those things."",""age"":""23"",""gender"":""Non-binary"",""other_gender"":"""",""race"":""White"",""other_race"":"""",""ethnicity"":""Non-Hispanic""}",NA,NA,NA,NA,NA,NA,NA,"For actions, it linked to imagining the limbs the creature would have. For more thought or feeling based ones, I imagined what senses or experiences would lead it to do those things.",23,"Non-Hispanic","Non-binary","White"
"subj_11",TRUE,FALSE,"[]","[]","[]","preload",0,"2.0.0",6,NA,NA,NA,NA,NA,NA,NA,NA,NA,NA,NA,NA,NA,NA,NA,NA
"subj_11",NA,NA,NA,NA,NA,"html-button-response",1,"2.0.0",2819,"consent",2813,"<p><b>Consent Form</b></p> <div style=""text-align:left;background-color:lightblue; padding:2vw; max-width:80vw;""><p><b>Purpose:</b> The purpose of this study is to understand how people think about the physical and social world.</p><p><b>Procedures:</b> In this study, you will watch videos, read sentences, or see pictures, and answer simple questions about them. This study should take approximately 4 minutes</p><p><b>Participation:</b> Participation in this study is voluntary. If you decide to join now, you can change your mind later. </p><p><b>Payment:</b> You will be paid $15.00/hour for participating in this study. Given the estimated duration of 4 minutes, your payment will amount to $1.</p><p><b>Risks and benefits:</b> There are no risks associated with participating in this study. There are no direct benefits associated with participating in this study. </p><p><b>Use of data by study researchers:</b> The research team led by Shari Liu at JHU will have access to your answers. </p><p><b>Publication of results:</b> The results of the research may be presented at scientific meetings or published in scientific journals. Your individual responses may be published. We will never publish your name, the date that you participated, and any other information that could be used to identify you. </p><p><b>Researcher contact information:</b> This study is run by Dr. Shari Liu at JHU. If you have any questions or concerns about this study, or in the very unlikely event of a research-related injury, please contact sliu199@jhu.edu. </p><p><b>Research rights information:</b> If you have questions about your rights as a research participant or feel that you have not been treated fairly, please call the Homewood Institutional Review Board at Johns Hopkins University at (410) 516-6580. If you have any questions or issues completing the survey, please email Shari Liu at sliu199@jhu.edu. </p> </div><p> Do you consent to participate? </p>","0",NA,NA,NA,NA,NA,NA,NA,NA,NA,NA,NA,NA
"subj_11",NA,NA,NA,NA,NA,"instructions",2,"2.0.0",16123,NA,13303,NA,NA,"[{""page_index"":0,""viewing_time"":13303}]",NA,NA,NA,NA,NA,NA,NA,NA,NA,NA,NA
"subj_11",NA,NA,NA,NA,NA,"html-button-response",3,"2.0.0",28505,NA,12381,"<p style=""font-size: 25px;"">Which of these actions would you do to make someone <strong>kick something</strong>?</p>","1",NA,"intervention","kick something","think about something","jump up and down","<p style=""font-size: 20px;"">I would make them <strong>jump up and down</strong></p>",NA,NA,NA,NA,NA,NA
"subj_11",NA,NA,NA,NA,NA,"html-button-response",4,"2.0.0",32777,NA,4272,"<p style=""font-size: 25px;"">Which of these actions would you do to make someone <strong>hear something</strong>?</p>","1",NA,"intervention","hear something","take a walk","see something","<p style=""font-size: 20px;"">I would make them <strong>see something</strong></p>",NA,NA,NA,NA,NA,NA
"subj_11",NA,NA,NA,NA,NA,"html-button-response",5,"2.0.0",36990,NA,4211,"<p style=""font-size: 25px;"">Which of these actions would you do to make someone <strong>get tired</strong>?</p>","1",NA,"intervention","get tired","jump up and down","feel scared","<p style=""font-size: 20px;"">I would make them <strong>jump up and down</strong></p>",NA,NA,NA,NA,NA,NA
"subj_11",NA,NA,NA,NA,NA,"html-button-response",6,"2.0.0",39524,NA,2532,"<p style=""font-size: 25px;"">Which of these actions would you do to make someone <strong>remember something</strong>?</p>","0",NA,"intervention","remember something","take a walk","think about something","<p style=""font-size: 20px;"">I would make them <strong>think about something</strong></p>",NA,NA,NA,NA,NA,NA
"subj_11",NA,NA,NA,NA,NA,"html-button-response",7,"2.0.0",43447,NA,3924,"<p style=""font-size: 25px;"">Which of these actions would you do to make someone <strong>choose what to do</strong>?</p>","1",NA,"intervention","choose what to do","feel scared","remember something","<p style=""font-size: 20px;"">I would make them <strong>remember something</strong></p>",NA,NA,NA,NA,NA,NA
"subj_11",NA,NA,NA,NA,NA,"html-button-response",8,"2.0.0",48736,NA,5288,"<p style=""font-size: 25px;"">Which of these actions would you do to make someone <strong>feel scared</strong>?</p>","1",NA,"intervention","feel scared","see something","become hungry","<p style=""font-size: 20px;"">I would make them <strong>see something</strong></p>",NA,NA,NA,NA,NA,NA
"subj_11",NA,NA,NA,NA,NA,"html-button-response",9,"2.0.0",53751,NA,5015,"<p style=""font-size: 25px;"">For this question, please select ""I would make them <strong>""choose what to do""</strong>""</p>","1",NA,"attention_check",NA,NA,NA,"I would make them sit down","choose what to do",NA,NA,NA,NA,NA
